#
# Results on Thursday November 21 2024 23:54:17 UTC.
# USER AGENT: Mozilla/5.0 (Macintosh; Intel Mac OS X 10.15; rv:127.0) Gecko/20100101 Firefox/127.0
# Design number was non-random = 0
#
# Columns below this comment are as follows:
# 1. Time results were received.
# 2. MD5 hash that hopefully uniquely identifies participant.
# 3. Controller name.
# 4. Item number.
# 5. Element number.
# 6. Type.
# 7. Group.
# 8. Field name.
# 9. Field value.
1732233258,56a69c5149bc1ef58f9ab8d169bc0d67,Form,4,0,intro,NULL,consent,yes
1732233258,56a69c5149bc1ef58f9ab8d169bc0d67,Form,4,0,intro,NULL,_REACTION_TIME_,2534
# Columns below this comment are as follows:
# 1. Time results were received.
# 2. MD5 hash that hopefully uniquely identifies participant.
# 3. Controller name.
# 4. Item number.
# 5. Element number.
# 6. Type.
# 7. Group.
# 8. PennElementType.
# 9. PennElementName.
# 10. Parameter.
# 11. Value.
# 12. EventTime.
# 13. Comments.
1732233258,56a69c5149bc1ef58f9ab8d169bc0d67,PennController,1,0,Intro1,NULL,PennController,1,_Trial_,Start,1732233155353,NULL
1732233258,56a69c5149bc1ef58f9ab8d169bc0d67,PennController,1,0,Intro1,NULL,PennController,1,_Trial_,End,1732233372665,NULL
# Columns below this comment are as follows:
# 1. Time results were received.
# 2. MD5 hash that hopefully uniquely identifies participant.
# 3. Controller name.
# 4. Item number.
# 5. Element number.
# 6. Type.
# 7. Group.
# 8. Question (NULL if none).
# 9. Answer.
# 10. Whether or not answer was correct (NULL if N/A).
# 11. Time taken to answer.
1732233258,56a69c5149bc1ef58f9ab8d169bc0d67,Question,5,0,practice,101,Each time you will be given a sentence along with some possible answers. Your instruction is to select the response that best fits the situation.,Makes sense.,NULL,1759
1732233258,56a69c5149bc1ef58f9ab8d169bc0d67,Question,59,0,Pos_Final,14,<div>%0A          <img src='https://osf.io/download/53879/' style='width:300px; height:auto;'><br>%0A          <p>Who do you think the emoji corresponds to?</p>%0A        </div>,Chris.,NULL,6511
1732233258,56a69c5149bc1ef58f9ab8d169bc0d67,Question,22,0,Pos_Initial,5,<div>%0A          <img src='https://osf.io/download/xf7j5/' style='width:300px; height:auto;'><br>%0A          <p>Who do you think the emoji corresponds to?</p>%0A        </div>,Maya.,NULL,4097
1732233258,56a69c5149bc1ef58f9ab8d169bc0d67,Question,105,0,Filler,120,<div>%0A          <img src='https://osf.io/download/zjqvk/' style='width:300px; height:auto;'><br>%0A          <p>Who do you think the verb corresponds to?</p>%0A        </div>,Hugh.,NULL,11399
1732233258,56a69c5149bc1ef58f9ab8d169bc0d67,Question,94,0,Filler,109,<div>%0A          <img src='https://osf.io/download/hc2ug/' style='width:300px; height:auto;'><br>%0A          <p>Who do you think the verb corresponds to?</p>%0A        </div>,Steve.,NULL,1341
# Columns below this comment are as follows:
# 1. Time results were received.
# 2. MD5 hash that hopefully uniquely identifies participant.
# 3. Controller name.
# 4. Item number.
# 5. Element number.
# 6. Type.
# 7. Group.
# 8. PennElementType.
# 9. PennElementName.
# 10. Parameter.
# 11. Value.
# 12. EventTime.
# 13. Comments.
1732233258,56a69c5149bc1ef58f9ab8d169bc0d67,PennController,0,0,Outro,NULL,PennController,0,_Trial_,Start,1732233409834,NULL
1732233258,56a69c5149bc1ef58f9ab8d169bc0d67,PennController,0,0,Outro,NULL,DropDown,gender,Selected,Male,1732233411912,1
1732233258,56a69c5149bc1ef58f9ab8d169bc0d67,PennController,0,0,Outro,NULL,DropDown,emoji-use,Selected,Occasionally,1732233413551,1
1732233258,56a69c5149bc1ef58f9ab8d169bc0d67,PennController,0,0,Outro,NULL,DropDown,emoji-rec,Selected,Occasionally,1732233415518,1
1732233258,56a69c5149bc1ef58f9ab8d169bc0d67,PennController,0,0,Outro,NULL,DropDown,age,Selected,40-49,1732233418735,2
1732233258,56a69c5149bc1ef58f9ab8d169bc0d67,PennController,0,0,Outro,NULL,PennController,0,_Trial_,End,1732233434754,NULL
#
# Results on Friday November 22 2024 09:11:42 UTC.
# USER AGENT: Mozilla/5.0 (Macintosh; Intel Mac OS X 10.15; rv:127.0) Gecko/20100101 Firefox/127.0
# Design number was non-random = 1
#
# Columns below this comment are as follows:
# 1. Time results were received.
# 2. MD5 hash that hopefully uniquely identifies participant.
# 3. Controller name.
# 4. Item number.
# 5. Element number.
# 6. Type.
# 7. Group.
# 8. PennElementType.
# 9. PennElementName.
# 10. Parameter.
# 11. Value.
# 12. EventTime.
# 13. Comments.
1732266703,56a69c5149bc1ef58f9ab8d169bc0d67,PennController,2,0,Intro1,NULL,PennController,2,_Trial_,Start,1732266879508,NULL
1732266703,56a69c5149bc1ef58f9ab8d169bc0d67,PennController,2,0,Intro1,NULL,PennController,2,_Trial_,End,1732266879519,NULL
1732266703,56a69c5149bc1ef58f9ab8d169bc0d67,PennController,0,0,TrainE,NULL,PennController,0,_Trial_,Start,1732266879526,NULL
1732266703,56a69c5149bc1ef58f9ab8d169bc0d67,PennController,0,0,TrainE,NULL,PennController,0,_Trial_,End,1732266879531,NULL
#
# Results on Friday November 22 2024 09:11:42 UTC.
# USER AGENT: Mozilla/5.0 (Macintosh; Intel Mac OS X 10.15; rv:127.0) Gecko/20100101 Firefox/127.0
# Design number was non-random = 1
#
# Columns below this comment are as follows:
# 1. Time results were received.
# 2. MD5 hash that hopefully uniquely identifies participant.
# 3. Controller name.
# 4. Item number.
# 5. Element number.
# 6. Type.
# 7. Group.
# 8. PennElementType.
# 9. PennElementName.
# 10. Parameter.
# 11. Value.
# 12. EventTime.
# 13. Comments.
1732266703,56a69c5149bc1ef58f9ab8d169bc0d67,PennController,2,0,Intro1,NULL,PennController,2,_Trial_,Start,1732266879508,NULL
1732266703,56a69c5149bc1ef58f9ab8d169bc0d67,PennController,2,0,Intro1,NULL,PennController,2,_Trial_,End,1732266879519,NULL
1732266703,56a69c5149bc1ef58f9ab8d169bc0d67,PennController,0,0,TrainE,NULL,PennController,0,_Trial_,Start,1732266879526,NULL
1732266703,56a69c5149bc1ef58f9ab8d169bc0d67,PennController,0,0,TrainE,NULL,PennController,0,_Trial_,End,1732266879531,NULL
#
# Results on Friday November 22 2024 13:16:36 UTC.
# USER AGENT: Mozilla/5.0 (X11; Linux x86_64; rv:129.0) Gecko/20100101 Firefox/129.0
# Design number was non-random = 3
#
# Columns below this comment are as follows:
# 1. Time results were received.
# 2. MD5 hash that hopefully uniquely identifies participant.
# 3. Controller name.
# 4. Item number.
# 5. Element number.
# 6. Type.
# 7. Group.
# 8. Field name.
# 9. Field value.
1732281396,d41b49df86d07998af2b12581c99e7ad,Form,5,0,intro,NULL,consent,yes
1732281396,d41b49df86d07998af2b12581c99e7ad,Form,5,0,intro,NULL,_REACTION_TIME_,29480
# Columns below this comment are as follows:
# 1. Time results were received.
# 2. MD5 hash that hopefully uniquely identifies participant.
# 3. Controller name.
# 4. Item number.
# 5. Element number.
# 6. Type.
# 7. Group.
# 8. PennElementType.
# 9. PennElementName.
# 10. Parameter.
# 11. Value.
# 12. EventTime.
# 13. Comments.
1732281396,d41b49df86d07998af2b12581c99e7ad,PennController,2,0,Intro1,NULL,PennController,2,_Trial_,Start,1732280825064,NULL
1732281396,d41b49df86d07998af2b12581c99e7ad,PennController,2,0,Intro1,NULL,PennController,2,_Trial_,End,1732280963285,NULL
# The lines below this comment are in groups of 2.
# The formats of the lines in each of these groups are as follows:
#
# Line 1:
#     Col. 1: Time results were received.
#     Col. 2: MD5 hash that hopefully uniquely identifies participant.
#     Col. 3: Controller name.
#     Col. 4: Item number.
#     Col. 5: Element number.
#     Col. 6: Type.
#     Col. 7: Group.
#     Col. 8: Question (NULL if none).
#     Col. 9: Answer.
#     Col. 10: Whether or not answer was correct (NULL if N/A).
#     Col. 11: Time taken to answer.
# Line 2:
#     Col. 1: Time results were received.
#     Col. 2: MD5 hash that hopefully uniquely identifies participant.
#     Col. 3: Controller name.
#     Col. 4: Item number.
#     Col. 5: Element number.
#     Col. 6: Type.
#     Col. 7: Group.
#     Col. 8: PennElementType.
#     Col. 9: PennElementName.
#     Col. 10: Parameter.
#     Col. 11: Value.
#     Col. 12: EventTime.
#     Col. 13: Comments.
1732281396,d41b49df86d07998af2b12581c99e7ad,Question,6,0,practice,201,Send me some practice items and I will put here...,Alright.,NULL,27874
1732281396,d41b49df86d07998af2b12581c99e7ad,PennController,0,0,TrainE,NULL,PennController,0,_Trial_,Start,1732280991208,NULL
# The lines below this comment are in groups of 2.
# The formats of the lines in each of these groups are as follows:
#
# Line 1:
#     Col. 1: Time results were received.
#     Col. 2: MD5 hash that hopefully uniquely identifies participant.
#     Col. 3: Controller name.
#     Col. 4: Item number.
#     Col. 5: Element number.
#     Col. 6: Type.
#     Col. 7: Group.
#     Col. 8: PennElementType.
#     Col. 9: PennElementName.
#     Col. 10: Parameter.
#     Col. 11: Value.
#     Col. 12: EventTime.
#     Col. 13: Comments.
# Line 2:
#     Col. 1: Time results were received.
#     Col. 2: MD5 hash that hopefully uniquely identifies participant.
#     Col. 3: Controller name.
#     Col. 4: Item number.
#     Col. 5: Element number.
#     Col. 6: Type.
#     Col. 7: Group.
#     Col. 8: Question (NULL if none).
#     Col. 9: Answer.
#     Col. 10: Whether or not answer was correct (NULL if N/A).
#     Col. 11: Time taken to answer.
1732281396,d41b49df86d07998af2b12581c99e7ad,PennController,0,0,TrainE,NULL,PennController,0,_Trial_,End,1732280995020,NULL
1732281396,d41b49df86d07998af2b12581c99e7ad,Question,69,0,Neg_Initial,16,<div>%0A          <img src='https://osf.io/download/z7xcp/' style='width:300px; height:auto;'><br>%0A          <p>Who do you think the emoji corresponds to?</p>%0A        </div>,Veronica.,NULL,6399
# Columns below this comment are as follows:
# 1. Time results were received.
# 2. MD5 hash that hopefully uniquely identifies participant.
# 3. Controller name.
# 4. Item number.
# 5. Element number.
# 6. Type.
# 7. Group.
# 8. Question (NULL if none).
# 9. Answer.
# 10. Whether or not answer was correct (NULL if N/A).
# 11. Time taken to answer.
1732281396,d41b49df86d07998af2b12581c99e7ad,Question,106,0,Filler,120,<div>%0A          <img src='https://osf.io/download/zjqvk/' style='width:300px; height:auto;'><br>%0A          <p>Who do you think the verb corresponds to?</p>%0A        </div>,The sender of the message.,NULL,38976
1732281396,d41b49df86d07998af2b12581c99e7ad,Question,42,0,Neg_Final,9,<div>%0A          <img src='https://osf.io/download/7su95/' style='width:300px; height:auto;'><br>%0A          <p>Who do you think the emoji corresponds to?</p>%0A        </div>,Peter.,NULL,27055
1732281396,d41b49df86d07998af2b12581c99e7ad,Question,101,0,Filler,115,<div>%0A          <img src='https://osf.io/download/r34uz/' style='width:300px; height:auto;'><br>%0A          <p>Who do you think the verb corresponds to?</p>%0A        </div>,Evan.,NULL,10223
1732281396,d41b49df86d07998af2b12581c99e7ad,Question,75,0,Pos_Initial,18,<div>%0A          <img src='https://osf.io/download/47sme/' style='width:300px; height:auto;'><br>%0A          <p>Who do you think the emoji corresponds to?</p>%0A        </div>,David.,NULL,71466
1732281396,d41b49df86d07998af2b12581c99e7ad,Question,104,0,Filler,118,<div>%0A          <img src='https://osf.io/download/kwpc6/' style='width:300px; height:auto;'><br>%0A          <p>Who do you think the verb corresponds to?</p>%0A        </div>,The sender of the message.,NULL,2581
1732281396,d41b49df86d07998af2b12581c99e7ad,Question,80,0,Pos_Final,19,<div>%0A          <img src='https://osf.io/download/89xer/' style='width:300px; height:auto;'><br>%0A          <p>Who do you think the emoji corresponds to?</p>%0A        </div>,Luke.,NULL,3634
1732281396,d41b49df86d07998af2b12581c99e7ad,Question,102,0,Filler,116,<div>%0A          <img src='https://osf.io/download/r82kz/' style='width:300px; height:auto;'><br>%0A          <p>Who do you think the verb corresponds to?</p>%0A        </div>,Vivienne.,NULL,4134
1732281396,d41b49df86d07998af2b12581c99e7ad,Question,53,0,Neg_Initial,12,<div>%0A          <img src='https://osf.io/download/edtz5/' style='width:300px; height:auto;'><br>%0A          <p>Who do you think the emoji corresponds to?</p>%0A        </div>,The sender of the message.,NULL,4667
1732281396,d41b49df86d07998af2b12581c99e7ad,Question,97,0,Filler,111,<div>%0A          <img src='https://osf.io/download/pmb4q/' style='width:300px; height:auto;'><br>%0A          <p>Who do you think the verb corresponds to?</p>%0A        </div>,The sender of the message.,NULL,114619
1732281396,d41b49df86d07998af2b12581c99e7ad,Question,74,0,Neg_Final,17,<div>%0A          <img src='https://osf.io/download/63xgt/' style='width:300px; height:auto;'><br>%0A          <p>Who do you think the emoji corresponds to?</p>%0A        </div>,Bart.,NULL,13712
1732281396,d41b49df86d07998af2b12581c99e7ad,Question,87,0,Filler,101,<div>%0A          <img src='https://osf.io/download/nzmy4/' style='width:300px; height:auto;'><br>%0A          <p>Who do you think the verb corresponds to?</p>%0A        </div>,The sender of the message.,NULL,2829
1732281396,d41b49df86d07998af2b12581c99e7ad,Question,11,0,Pos_Initial,2,<div>%0A          <img src='https://osf.io/download/vux9k/' style='width:300px; height:auto;'><br>%0A          <p>Who do you think the emoji corresponds to?</p>%0A        </div>,Susie.,NULL,2971
1732281396,d41b49df86d07998af2b12581c99e7ad,Question,100,0,Filler,114,<div>%0A          <img src='https://osf.io/download/xe6tp/' style='width:300px; height:auto;'><br>%0A          <p>Who do you think the verb corresponds to?</p>%0A        </div>,Brianna.,NULL,5297
1732281396,d41b49df86d07998af2b12581c99e7ad,Question,16,0,Pos_Final,3,<div>%0A          <img src='https://osf.io/download/rb7n5/' style='width:300px; height:auto;'><br>%0A          <p>Who do you think the emoji corresponds to?</p>%0A        </div>,Laura.,NULL,3812
1732281396,d41b49df86d07998af2b12581c99e7ad,Question,99,0,Filler,113,<div>%0A          <img src='https://osf.io/download/u2cnd/' style='width:300px; height:auto;'><br>%0A          <p>Who do you think the verb corresponds to?</p>%0A        </div>,Carol.,NULL,7394
1732281396,d41b49df86d07998af2b12581c99e7ad,Question,85,0,Neg_Initial,20,<div>%0A          <img src='https://osf.io/download/dnv29/' style='width:300px; height:auto;'><br>%0A          <p>Who do you think the emoji corresponds to?</p>%0A        </div>,The sender of the message.,NULL,2912
1732281396,d41b49df86d07998af2b12581c99e7ad,Question,95,0,Filler,109,<div>%0A          <img src='https://osf.io/download/hc2ug/' style='width:300px; height:auto;'><br>%0A          <p>Who do you think the verb corresponds to?</p>%0A        </div>,Steve.,NULL,5435
1732281396,d41b49df86d07998af2b12581c99e7ad,Question,26,0,Neg_Final,5,<div>%0A          <img src='https://osf.io/download/jmyt9/' style='width:300px; height:auto;'><br>%0A          <p>Who do you think the emoji corresponds to?</p>%0A        </div>,Maya.,NULL,4206
1732281396,d41b49df86d07998af2b12581c99e7ad,Question,92,0,Filler,106,<div>%0A          <img src='https://osf.io/download/p7arf/' style='width:300px; height:auto;'><br>%0A          <p>Who do you think the verb corresponds to?</p>%0A        </div>,The sender of the message.,NULL,42701
1732281396,d41b49df86d07998af2b12581c99e7ad,Question,43,0,Pos_Initial,10,<div>%0A          <img src='https://osf.io/download/5ea39/' style='width:300px; height:auto;'><br>%0A          <p>Who do you think the emoji corresponds to?</p>%0A        </div>,The sender of the message.,NULL,3195
1732281396,d41b49df86d07998af2b12581c99e7ad,Question,105,0,Filler,119,<div>%0A          <img src='https://osf.io/download/qbz7d/' style='width:300px; height:auto;'><br>%0A          <p>Who do you think the verb corresponds to?</p>%0A        </div>,The sender of the message.,NULL,4483
1732281396,d41b49df86d07998af2b12581c99e7ad,Question,32,0,Pos_Final,7,<div>%0A          <img src='https://osf.io/download/rm4hb/' style='width:300px; height:auto;'><br>%0A          <p>Who do you think the emoji corresponds to?</p>%0A        </div>,Alex.,NULL,2752
1732281396,d41b49df86d07998af2b12581c99e7ad,Question,89,0,Filler,103,<div>%0A          <img src='https://osf.io/download/f5s6z/' style='width:300px; height:auto;'><br>%0A          <p>Who do you think the verb corresponds to?</p>%0A        </div>,The sender of the message.,NULL,3059
1732281396,d41b49df86d07998af2b12581c99e7ad,Question,37,0,Neg_Initial,8,<div>%0A          <img src='https://osf.io/download/hscdx/' style='width:300px; height:auto;'><br>%0A          <p>Who do you think the emoji corresponds to?</p>%0A        </div>,The sender of the message.,NULL,4370
1732281396,d41b49df86d07998af2b12581c99e7ad,Question,91,0,Filler,105,<div>%0A          <img src='https://osf.io/download/d3h8v/' style='width:300px; height:auto;'><br>%0A          <p>Who do you think the verb corresponds to?</p>%0A        </div>,Kelly.,NULL,10084
1732281396,d41b49df86d07998af2b12581c99e7ad,Question,58,0,Neg_Final,13,<div>%0A          <img src='https://osf.io/download/7yjpm/' style='width:300px; height:auto;'><br>%0A          <p>Who do you think the emoji corresponds to?</p>%0A        </div>,The sender of the message.,NULL,64762
1732281396,d41b49df86d07998af2b12581c99e7ad,Question,88,0,Filler,102,<div>%0A          <img src='https://osf.io/download/ehw8n/' style='width:300px; height:auto;'><br>%0A          <p>Who do you think the verb corresponds to?</p>%0A        </div>,The sender of the message.,NULL,3635
1732281396,d41b49df86d07998af2b12581c99e7ad,Question,27,0,Pos_Initial,6,<div>%0A          <img src='https://osf.io/download/zmdqe/' style='width:300px; height:auto;'><br>%0A          <p>Who do you think the emoji corresponds to?</p>%0A        </div>,The sender of the message.,NULL,4365
1732281396,d41b49df86d07998af2b12581c99e7ad,Question,98,0,Filler,112,<div>%0A          <img src='https://osf.io/download/eac4w/' style='width:300px; height:auto;'><br>%0A          <p>Who do you think the verb corresponds to?</p>%0A        </div>,The sender of the message.,NULL,17361
1732281396,d41b49df86d07998af2b12581c99e7ad,Question,64,0,Pos_Final,15,<div>%0A          <img src='https://osf.io/download/rebhs/' style='width:300px; height:auto;'><br>%0A          <p>Who do you think the emoji corresponds to?</p>%0A        </div>,The sender of the message.,NULL,2776
1732281396,d41b49df86d07998af2b12581c99e7ad,Question,90,0,Filler,104,<div>%0A          <img src='https://osf.io/download/zsmq5/' style='width:300px; height:auto;'><br>%0A          <p>Who do you think the verb corresponds to?</p>%0A        </div>,The sender of the message.,NULL,3611
1732281396,d41b49df86d07998af2b12581c99e7ad,Question,21,0,Neg_Initial,4,<div>%0A          <img src='https://osf.io/download/4m8tn/' style='width:300px; height:auto;'><br>%0A          <p>Who do you think the emoji corresponds to?</p>%0A        </div>,The sender of the message.,NULL,9306
1732281396,d41b49df86d07998af2b12581c99e7ad,Question,94,0,Filler,108,<div>%0A          <img src='https://osf.io/download/am6be/' style='width:300px; height:auto;'><br>%0A          <p>Who do you think the verb corresponds to?</p>%0A        </div>,The sender of the message.,NULL,5711
1732281396,d41b49df86d07998af2b12581c99e7ad,Question,10,0,Neg_Final,1,<div>%0A          <img src='https://osf.io/download/wsh3q/' style='width:300px; height:auto;'><br>%0A          <p>Who do you think the emoji corresponds to?</p>%0A        </div>,Sophie.,NULL,3999
1732281396,d41b49df86d07998af2b12581c99e7ad,Question,96,0,Filler,110,<div>%0A          <img src='https://osf.io/download/5qgsc/' style='width:300px; height:auto;'><br>%0A          <p>Who do you think the verb corresponds to?</p>%0A        </div>,The sender of the message.,NULL,39895
1732281396,d41b49df86d07998af2b12581c99e7ad,Question,59,0,Pos_Initial,14,<div>%0A          <img src='https://osf.io/download/bmdex/' style='width:300px; height:auto;'><br>%0A          <p>Who do you think the emoji corresponds to?</p>%0A        </div>,The sender of the message.,NULL,4628
1732281396,d41b49df86d07998af2b12581c99e7ad,Question,103,0,Filler,117,<div>%0A          <img src='https://osf.io/download/z4sp6/' style='width:300px; height:auto;'><br>%0A          <p>Who do you think the verb corresponds to?</p>%0A        </div>,The sender of the message.,NULL,6026
1732281396,d41b49df86d07998af2b12581c99e7ad,Question,48,0,Pos_Final,11,<div>%0A          <img src='https://osf.io/download/gsm2t/' style='width:300px; height:auto;'><br>%0A          <p>Who do you think the emoji corresponds to?</p>%0A        </div>,The sender of the message.,NULL,4747
1732281396,d41b49df86d07998af2b12581c99e7ad,Question,93,0,Filler,107,<div>%0A          <img src='https://osf.io/download/yn9z5/' style='width:300px; height:auto;'><br>%0A          <p>Who do you think the verb corresponds to?</p>%0A        </div>,The sender of the message.,NULL,4304
#
# Results on Friday November 22 2024 13:17:06 UTC.
# USER AGENT: Mozilla/5.0 (X11; Linux x86_64; rv:129.0) Gecko/20100101 Firefox/129.0
# Design number was non-random = 3
#
# Columns below this comment are as follows:
# 1. Time results were received.
# 2. MD5 hash that hopefully uniquely identifies participant.
# 3. Controller name.
# 4. Item number.
# 5. Element number.
# 6. Type.
# 7. Group.
# 8. Field name.
# 9. Field value.
1732281427,d41b49df86d07998af2b12581c99e7ad,Form,5,0,intro,NULL,consent,yes
1732281427,d41b49df86d07998af2b12581c99e7ad,Form,5,0,intro,NULL,_REACTION_TIME_,29480
# Columns below this comment are as follows:
# 1. Time results were received.
# 2. MD5 hash that hopefully uniquely identifies participant.
# 3. Controller name.
# 4. Item number.
# 5. Element number.
# 6. Type.
# 7. Group.
# 8. PennElementType.
# 9. PennElementName.
# 10. Parameter.
# 11. Value.
# 12. EventTime.
# 13. Comments.
1732281427,d41b49df86d07998af2b12581c99e7ad,PennController,2,0,Intro1,NULL,PennController,2,_Trial_,Start,1732280825064,NULL
1732281427,d41b49df86d07998af2b12581c99e7ad,PennController,2,0,Intro1,NULL,PennController,2,_Trial_,End,1732280963285,NULL
# The lines below this comment are in groups of 2.
# The formats of the lines in each of these groups are as follows:
#
# Line 1:
#     Col. 1: Time results were received.
#     Col. 2: MD5 hash that hopefully uniquely identifies participant.
#     Col. 3: Controller name.
#     Col. 4: Item number.
#     Col. 5: Element number.
#     Col. 6: Type.
#     Col. 7: Group.
#     Col. 8: Question (NULL if none).
#     Col. 9: Answer.
#     Col. 10: Whether or not answer was correct (NULL if N/A).
#     Col. 11: Time taken to answer.
# Line 2:
#     Col. 1: Time results were received.
#     Col. 2: MD5 hash that hopefully uniquely identifies participant.
#     Col. 3: Controller name.
#     Col. 4: Item number.
#     Col. 5: Element number.
#     Col. 6: Type.
#     Col. 7: Group.
#     Col. 8: PennElementType.
#     Col. 9: PennElementName.
#     Col. 10: Parameter.
#     Col. 11: Value.
#     Col. 12: EventTime.
#     Col. 13: Comments.
1732281427,d41b49df86d07998af2b12581c99e7ad,Question,6,0,practice,201,Send me some practice items and I will put here...,Alright.,NULL,27874
1732281427,d41b49df86d07998af2b12581c99e7ad,PennController,0,0,TrainE,NULL,PennController,0,_Trial_,Start,1732280991208,NULL
# The lines below this comment are in groups of 2.
# The formats of the lines in each of these groups are as follows:
#
# Line 1:
#     Col. 1: Time results were received.
#     Col. 2: MD5 hash that hopefully uniquely identifies participant.
#     Col. 3: Controller name.
#     Col. 4: Item number.
#     Col. 5: Element number.
#     Col. 6: Type.
#     Col. 7: Group.
#     Col. 8: PennElementType.
#     Col. 9: PennElementName.
#     Col. 10: Parameter.
#     Col. 11: Value.
#     Col. 12: EventTime.
#     Col. 13: Comments.
# Line 2:
#     Col. 1: Time results were received.
#     Col. 2: MD5 hash that hopefully uniquely identifies participant.
#     Col. 3: Controller name.
#     Col. 4: Item number.
#     Col. 5: Element number.
#     Col. 6: Type.
#     Col. 7: Group.
#     Col. 8: Question (NULL if none).
#     Col. 9: Answer.
#     Col. 10: Whether or not answer was correct (NULL if N/A).
#     Col. 11: Time taken to answer.
1732281427,d41b49df86d07998af2b12581c99e7ad,PennController,0,0,TrainE,NULL,PennController,0,_Trial_,End,1732280995020,NULL
1732281427,d41b49df86d07998af2b12581c99e7ad,Question,69,0,Neg_Initial,16,<div>%0A          <img src='https://osf.io/download/z7xcp/' style='width:300px; height:auto;'><br>%0A          <p>Who do you think the emoji corresponds to?</p>%0A        </div>,Veronica.,NULL,6399
# Columns below this comment are as follows:
# 1. Time results were received.
# 2. MD5 hash that hopefully uniquely identifies participant.
# 3. Controller name.
# 4. Item number.
# 5. Element number.
# 6. Type.
# 7. Group.
# 8. Question (NULL if none).
# 9. Answer.
# 10. Whether or not answer was correct (NULL if N/A).
# 11. Time taken to answer.
1732281427,d41b49df86d07998af2b12581c99e7ad,Question,106,0,Filler,120,<div>%0A          <img src='https://osf.io/download/zjqvk/' style='width:300px; height:auto;'><br>%0A          <p>Who do you think the verb corresponds to?</p>%0A        </div>,The sender of the message.,NULL,38976
1732281427,d41b49df86d07998af2b12581c99e7ad,Question,42,0,Neg_Final,9,<div>%0A          <img src='https://osf.io/download/7su95/' style='width:300px; height:auto;'><br>%0A          <p>Who do you think the emoji corresponds to?</p>%0A        </div>,Peter.,NULL,27055
1732281427,d41b49df86d07998af2b12581c99e7ad,Question,101,0,Filler,115,<div>%0A          <img src='https://osf.io/download/r34uz/' style='width:300px; height:auto;'><br>%0A          <p>Who do you think the verb corresponds to?</p>%0A        </div>,Evan.,NULL,10223
1732281427,d41b49df86d07998af2b12581c99e7ad,Question,75,0,Pos_Initial,18,<div>%0A          <img src='https://osf.io/download/47sme/' style='width:300px; height:auto;'><br>%0A          <p>Who do you think the emoji corresponds to?</p>%0A        </div>,David.,NULL,71466
1732281427,d41b49df86d07998af2b12581c99e7ad,Question,104,0,Filler,118,<div>%0A          <img src='https://osf.io/download/kwpc6/' style='width:300px; height:auto;'><br>%0A          <p>Who do you think the verb corresponds to?</p>%0A        </div>,The sender of the message.,NULL,2581
1732281427,d41b49df86d07998af2b12581c99e7ad,Question,80,0,Pos_Final,19,<div>%0A          <img src='https://osf.io/download/89xer/' style='width:300px; height:auto;'><br>%0A          <p>Who do you think the emoji corresponds to?</p>%0A        </div>,Luke.,NULL,3634
1732281427,d41b49df86d07998af2b12581c99e7ad,Question,102,0,Filler,116,<div>%0A          <img src='https://osf.io/download/r82kz/' style='width:300px; height:auto;'><br>%0A          <p>Who do you think the verb corresponds to?</p>%0A        </div>,Vivienne.,NULL,4134
1732281427,d41b49df86d07998af2b12581c99e7ad,Question,53,0,Neg_Initial,12,<div>%0A          <img src='https://osf.io/download/edtz5/' style='width:300px; height:auto;'><br>%0A          <p>Who do you think the emoji corresponds to?</p>%0A        </div>,The sender of the message.,NULL,4667
1732281427,d41b49df86d07998af2b12581c99e7ad,Question,97,0,Filler,111,<div>%0A          <img src='https://osf.io/download/pmb4q/' style='width:300px; height:auto;'><br>%0A          <p>Who do you think the verb corresponds to?</p>%0A        </div>,The sender of the message.,NULL,114619
1732281427,d41b49df86d07998af2b12581c99e7ad,Question,74,0,Neg_Final,17,<div>%0A          <img src='https://osf.io/download/63xgt/' style='width:300px; height:auto;'><br>%0A          <p>Who do you think the emoji corresponds to?</p>%0A        </div>,Bart.,NULL,13712
1732281427,d41b49df86d07998af2b12581c99e7ad,Question,87,0,Filler,101,<div>%0A          <img src='https://osf.io/download/nzmy4/' style='width:300px; height:auto;'><br>%0A          <p>Who do you think the verb corresponds to?</p>%0A        </div>,The sender of the message.,NULL,2829
1732281427,d41b49df86d07998af2b12581c99e7ad,Question,11,0,Pos_Initial,2,<div>%0A          <img src='https://osf.io/download/vux9k/' style='width:300px; height:auto;'><br>%0A          <p>Who do you think the emoji corresponds to?</p>%0A        </div>,Susie.,NULL,2971
1732281427,d41b49df86d07998af2b12581c99e7ad,Question,100,0,Filler,114,<div>%0A          <img src='https://osf.io/download/xe6tp/' style='width:300px; height:auto;'><br>%0A          <p>Who do you think the verb corresponds to?</p>%0A        </div>,Brianna.,NULL,5297
1732281427,d41b49df86d07998af2b12581c99e7ad,Question,16,0,Pos_Final,3,<div>%0A          <img src='https://osf.io/download/rb7n5/' style='width:300px; height:auto;'><br>%0A          <p>Who do you think the emoji corresponds to?</p>%0A        </div>,Laura.,NULL,3812
1732281427,d41b49df86d07998af2b12581c99e7ad,Question,99,0,Filler,113,<div>%0A          <img src='https://osf.io/download/u2cnd/' style='width:300px; height:auto;'><br>%0A          <p>Who do you think the verb corresponds to?</p>%0A        </div>,Carol.,NULL,7394
1732281427,d41b49df86d07998af2b12581c99e7ad,Question,85,0,Neg_Initial,20,<div>%0A          <img src='https://osf.io/download/dnv29/' style='width:300px; height:auto;'><br>%0A          <p>Who do you think the emoji corresponds to?</p>%0A        </div>,The sender of the message.,NULL,2912
1732281427,d41b49df86d07998af2b12581c99e7ad,Question,95,0,Filler,109,<div>%0A          <img src='https://osf.io/download/hc2ug/' style='width:300px; height:auto;'><br>%0A          <p>Who do you think the verb corresponds to?</p>%0A        </div>,Steve.,NULL,5435
1732281427,d41b49df86d07998af2b12581c99e7ad,Question,26,0,Neg_Final,5,<div>%0A          <img src='https://osf.io/download/jmyt9/' style='width:300px; height:auto;'><br>%0A          <p>Who do you think the emoji corresponds to?</p>%0A        </div>,Maya.,NULL,4206
1732281427,d41b49df86d07998af2b12581c99e7ad,Question,92,0,Filler,106,<div>%0A          <img src='https://osf.io/download/p7arf/' style='width:300px; height:auto;'><br>%0A          <p>Who do you think the verb corresponds to?</p>%0A        </div>,The sender of the message.,NULL,42701
1732281427,d41b49df86d07998af2b12581c99e7ad,Question,43,0,Pos_Initial,10,<div>%0A          <img src='https://osf.io/download/5ea39/' style='width:300px; height:auto;'><br>%0A          <p>Who do you think the emoji corresponds to?</p>%0A        </div>,The sender of the message.,NULL,3195
1732281427,d41b49df86d07998af2b12581c99e7ad,Question,105,0,Filler,119,<div>%0A          <img src='https://osf.io/download/qbz7d/' style='width:300px; height:auto;'><br>%0A          <p>Who do you think the verb corresponds to?</p>%0A        </div>,The sender of the message.,NULL,4483
1732281427,d41b49df86d07998af2b12581c99e7ad,Question,32,0,Pos_Final,7,<div>%0A          <img src='https://osf.io/download/rm4hb/' style='width:300px; height:auto;'><br>%0A          <p>Who do you think the emoji corresponds to?</p>%0A        </div>,Alex.,NULL,2752
1732281427,d41b49df86d07998af2b12581c99e7ad,Question,89,0,Filler,103,<div>%0A          <img src='https://osf.io/download/f5s6z/' style='width:300px; height:auto;'><br>%0A          <p>Who do you think the verb corresponds to?</p>%0A        </div>,The sender of the message.,NULL,3059
1732281427,d41b49df86d07998af2b12581c99e7ad,Question,37,0,Neg_Initial,8,<div>%0A          <img src='https://osf.io/download/hscdx/' style='width:300px; height:auto;'><br>%0A          <p>Who do you think the emoji corresponds to?</p>%0A        </div>,The sender of the message.,NULL,4370
1732281427,d41b49df86d07998af2b12581c99e7ad,Question,91,0,Filler,105,<div>%0A          <img src='https://osf.io/download/d3h8v/' style='width:300px; height:auto;'><br>%0A          <p>Who do you think the verb corresponds to?</p>%0A        </div>,Kelly.,NULL,10084
1732281427,d41b49df86d07998af2b12581c99e7ad,Question,58,0,Neg_Final,13,<div>%0A          <img src='https://osf.io/download/7yjpm/' style='width:300px; height:auto;'><br>%0A          <p>Who do you think the emoji corresponds to?</p>%0A        </div>,The sender of the message.,NULL,64762
1732281427,d41b49df86d07998af2b12581c99e7ad,Question,88,0,Filler,102,<div>%0A          <img src='https://osf.io/download/ehw8n/' style='width:300px; height:auto;'><br>%0A          <p>Who do you think the verb corresponds to?</p>%0A        </div>,The sender of the message.,NULL,3635
1732281427,d41b49df86d07998af2b12581c99e7ad,Question,27,0,Pos_Initial,6,<div>%0A          <img src='https://osf.io/download/zmdqe/' style='width:300px; height:auto;'><br>%0A          <p>Who do you think the emoji corresponds to?</p>%0A        </div>,The sender of the message.,NULL,4365
1732281427,d41b49df86d07998af2b12581c99e7ad,Question,98,0,Filler,112,<div>%0A          <img src='https://osf.io/download/eac4w/' style='width:300px; height:auto;'><br>%0A          <p>Who do you think the verb corresponds to?</p>%0A        </div>,The sender of the message.,NULL,17361
1732281427,d41b49df86d07998af2b12581c99e7ad,Question,64,0,Pos_Final,15,<div>%0A          <img src='https://osf.io/download/rebhs/' style='width:300px; height:auto;'><br>%0A          <p>Who do you think the emoji corresponds to?</p>%0A        </div>,The sender of the message.,NULL,2776
1732281427,d41b49df86d07998af2b12581c99e7ad,Question,90,0,Filler,104,<div>%0A          <img src='https://osf.io/download/zsmq5/' style='width:300px; height:auto;'><br>%0A          <p>Who do you think the verb corresponds to?</p>%0A        </div>,The sender of the message.,NULL,3611
1732281427,d41b49df86d07998af2b12581c99e7ad,Question,21,0,Neg_Initial,4,<div>%0A          <img src='https://osf.io/download/4m8tn/' style='width:300px; height:auto;'><br>%0A          <p>Who do you think the emoji corresponds to?</p>%0A        </div>,The sender of the message.,NULL,9306
1732281427,d41b49df86d07998af2b12581c99e7ad,Question,94,0,Filler,108,<div>%0A          <img src='https://osf.io/download/am6be/' style='width:300px; height:auto;'><br>%0A          <p>Who do you think the verb corresponds to?</p>%0A        </div>,The sender of the message.,NULL,5711
1732281427,d41b49df86d07998af2b12581c99e7ad,Question,10,0,Neg_Final,1,<div>%0A          <img src='https://osf.io/download/wsh3q/' style='width:300px; height:auto;'><br>%0A          <p>Who do you think the emoji corresponds to?</p>%0A        </div>,Sophie.,NULL,3999
1732281427,d41b49df86d07998af2b12581c99e7ad,Question,96,0,Filler,110,<div>%0A          <img src='https://osf.io/download/5qgsc/' style='width:300px; height:auto;'><br>%0A          <p>Who do you think the verb corresponds to?</p>%0A        </div>,The sender of the message.,NULL,39895
1732281427,d41b49df86d07998af2b12581c99e7ad,Question,59,0,Pos_Initial,14,<div>%0A          <img src='https://osf.io/download/bmdex/' style='width:300px; height:auto;'><br>%0A          <p>Who do you think the emoji corresponds to?</p>%0A        </div>,The sender of the message.,NULL,4628
1732281427,d41b49df86d07998af2b12581c99e7ad,Question,103,0,Filler,117,<div>%0A          <img src='https://osf.io/download/z4sp6/' style='width:300px; height:auto;'><br>%0A          <p>Who do you think the verb corresponds to?</p>%0A        </div>,The sender of the message.,NULL,6026
1732281427,d41b49df86d07998af2b12581c99e7ad,Question,48,0,Pos_Final,11,<div>%0A          <img src='https://osf.io/download/gsm2t/' style='width:300px; height:auto;'><br>%0A          <p>Who do you think the emoji corresponds to?</p>%0A        </div>,The sender of the message.,NULL,4747
1732281427,d41b49df86d07998af2b12581c99e7ad,Question,93,0,Filler,107,<div>%0A          <img src='https://osf.io/download/yn9z5/' style='width:300px; height:auto;'><br>%0A          <p>Who do you think the verb corresponds to?</p>%0A        </div>,The sender of the message.,NULL,4304
# Columns below this comment are as follows:
# 1. Time results were received.
# 2. MD5 hash that hopefully uniquely identifies participant.
# 3. Controller name.
# 4. Item number.
# 5. Element number.
# 6. Type.
# 7. Group.
# 8. PennElementType.
# 9. PennElementName.
# 10. Parameter.
# 11. Value.
# 12. EventTime.
# 13. Comments.
1732281427,d41b49df86d07998af2b12581c99e7ad,PennController,1,0,Outro,NULL,PennController,1,_Trial_,Start,1732281573863,NULL
1732281427,d41b49df86d07998af2b12581c99e7ad,PennController,1,0,Outro,NULL,DropDown,gender,Selected,Female,1732281580473,0
1732281427,d41b49df86d07998af2b12581c99e7ad,PennController,1,0,Outro,NULL,DropDown,emoji-use,Selected,Everyday,1732281588906,0
1732281427,d41b49df86d07998af2b12581c99e7ad,PennController,1,0,Outro,NULL,DropDown,emoji-rec,Selected,Everyday,1732281593189,0
1732281427,d41b49df86d07998af2b12581c99e7ad,PennController,1,0,Outro,NULL,DropDown,age,Selected,18-29,1732281602240,0
1732281427,d41b49df86d07998af2b12581c99e7ad,PennController,1,0,Outro,NULL,PennController,1,_Trial_,End,1732281604371,NULL
#
# Results on Saturday November 23 2024 22:05:32 UTC.
# USER AGENT: Mozilla/5.0 (Windows NT 10.0; Win64; x64) AppleWebKit/537.36 (KHTML, like Gecko) Chrome/130.0.0.0 Safari/537.36
# Design number was non-random = 5
#
# Columns below this comment are as follows:
# 1. Time results were received.
# 2. MD5 hash that hopefully uniquely identifies participant.
# 3. Controller name.
# 4. Item number.
# 5. Element number.
# 6. Type.
# 7. Group.
# 8. Field name.
# 9. Field value.
1732399532,8266cbdf0dafaed9dcfce61410cd45d7,Form,5,0,intro,NULL,consent,yes
1732399532,8266cbdf0dafaed9dcfce61410cd45d7,Form,5,0,intro,NULL,_REACTION_TIME_,4525
# Columns below this comment are as follows:
# 1. Time results were received.
# 2. MD5 hash that hopefully uniquely identifies participant.
# 3. Controller name.
# 4. Item number.
# 5. Element number.
# 6. Type.
# 7. Group.
# 8. PennElementType.
# 9. PennElementName.
# 10. Parameter.
# 11. Value.
# 12. EventTime.
# 13. Comments.
1732399532,8266cbdf0dafaed9dcfce61410cd45d7,PennController,2,0,Intro1,NULL,PennController,2,_Trial_,Start,1732398178990,NULL
1732399532,8266cbdf0dafaed9dcfce61410cd45d7,PennController,2,0,Intro1,NULL,PennController,2,_Trial_,End,1732398200393,NULL
# The lines below this comment are in groups of 2.
# The formats of the lines in each of these groups are as follows:
#
# Line 1:
#     Col. 1: Time results were received.
#     Col. 2: MD5 hash that hopefully uniquely identifies participant.
#     Col. 3: Controller name.
#     Col. 4: Item number.
#     Col. 5: Element number.
#     Col. 6: Type.
#     Col. 7: Group.
#     Col. 8: Question (NULL if none).
#     Col. 9: Answer.
#     Col. 10: Whether or not answer was correct (NULL if N/A).
#     Col. 11: Time taken to answer.
# Line 2:
#     Col. 1: Time results were received.
#     Col. 2: MD5 hash that hopefully uniquely identifies participant.
#     Col. 3: Controller name.
#     Col. 4: Item number.
#     Col. 5: Element number.
#     Col. 6: Type.
#     Col. 7: Group.
#     Col. 8: PennElementType.
#     Col. 9: PennElementName.
#     Col. 10: Parameter.
#     Col. 11: Value.
#     Col. 12: EventTime.
#     Col. 13: Comments.
1732399532,8266cbdf0dafaed9dcfce61410cd45d7,Question,6,0,practice,201,Send me some practice items and I will put here...,Makes sense.,NULL,1957
1732399532,8266cbdf0dafaed9dcfce61410cd45d7,PennController,0,0,TrainE,NULL,PennController,0,_Trial_,Start,1732398202372,NULL
# The lines below this comment are in groups of 2.
# The formats of the lines in each of these groups are as follows:
#
# Line 1:
#     Col. 1: Time results were received.
#     Col. 2: MD5 hash that hopefully uniquely identifies participant.
#     Col. 3: Controller name.
#     Col. 4: Item number.
#     Col. 5: Element number.
#     Col. 6: Type.
#     Col. 7: Group.
#     Col. 8: PennElementType.
#     Col. 9: PennElementName.
#     Col. 10: Parameter.
#     Col. 11: Value.
#     Col. 12: EventTime.
#     Col. 13: Comments.
# Line 2:
#     Col. 1: Time results were received.
#     Col. 2: MD5 hash that hopefully uniquely identifies participant.
#     Col. 3: Controller name.
#     Col. 4: Item number.
#     Col. 5: Element number.
#     Col. 6: Type.
#     Col. 7: Group.
#     Col. 8: Question (NULL if none).
#     Col. 9: Answer.
#     Col. 10: Whether or not answer was correct (NULL if N/A).
#     Col. 11: Time taken to answer.
1732399532,8266cbdf0dafaed9dcfce61410cd45d7,PennController,0,0,TrainE,NULL,PennController,0,_Trial_,End,1732398203597,NULL
1732399532,8266cbdf0dafaed9dcfce61410cd45d7,Question,96,0,Filler,110,<div>%0A          <img src='https://osf.io/download/5qgsc/' style='width:300px; height:auto;'><br>%0A          <p>Who do you think the verb corresponds to?</p>%0A        </div>,Chloe.,NULL,7011
# Columns below this comment are as follows:
# 1. Time results were received.
# 2. MD5 hash that hopefully uniquely identifies participant.
# 3. Controller name.
# 4. Item number.
# 5. Element number.
# 6. Type.
# 7. Group.
# 8. Question (NULL if none).
# 9. Answer.
# 10. Whether or not answer was correct (NULL if N/A).
# 11. Time taken to answer.
1732399532,8266cbdf0dafaed9dcfce61410cd45d7,Question,24,0,Pos_Final,5,<div>%0A          <img src='https://osf.io/download/nv2se/' style='width:300px; height:auto;'><br>%0A          <p>Who do you think the emoji corresponds to?</p>%0A        </div>,Maya.,NULL,2227
1732399532,8266cbdf0dafaed9dcfce61410cd45d7,Question,90,0,Filler,104,<div>%0A          <img src='https://osf.io/download/zsmq5/' style='width:300px; height:auto;'><br>%0A          <p>Who do you think the verb corresponds to?</p>%0A        </div>,Ruby.,NULL,830
1732399532,8266cbdf0dafaed9dcfce61410cd45d7,Question,77,0,Neg_Initial,18,<div>%0A          <img src='https://osf.io/download/ktdym/' style='width:300px; height:auto;'><br>%0A          <p>Who do you think the emoji corresponds to?</p>%0A        </div>,Victoria.,NULL,681
1732399532,8266cbdf0dafaed9dcfce61410cd45d7,Question,92,0,Filler,106,<div>%0A          <img src='https://osf.io/download/p7arf/' style='width:300px; height:auto;'><br>%0A          <p>Who do you think the verb corresponds to?</p>%0A        </div>,The sender of the message.,NULL,957
1732399532,8266cbdf0dafaed9dcfce61410cd45d7,Question,35,0,Pos_Initial,8,<div>%0A          <img src='https://osf.io/download/52mj4/' style='width:300px; height:auto;'><br>%0A          <p>Who do you think the emoji corresponds to?</p>%0A        </div>,The sender of the message.,NULL,691
1732399532,8266cbdf0dafaed9dcfce61410cd45d7,Question,88,0,Filler,102,<div>%0A          <img src='https://osf.io/download/ehw8n/' style='width:300px; height:auto;'><br>%0A          <p>Who do you think the verb corresponds to?</p>%0A        </div>,The sender of the message.,NULL,765
1732399532,8266cbdf0dafaed9dcfce61410cd45d7,Question,18,0,Neg_Final,3,<div>%0A          <img src='https://osf.io/download/7xmyc/' style='width:300px; height:auto;'><br>%0A          <p>Who do you think the emoji corresponds to?</p>%0A        </div>,The sender of the message.,NULL,709
1732399532,8266cbdf0dafaed9dcfce61410cd45d7,Question,97,0,Filler,111,<div>%0A          <img src='https://osf.io/download/pmb4q/' style='width:300px; height:auto;'><br>%0A          <p>Who do you think the verb corresponds to?</p>%0A        </div>,The sender of the message.,NULL,606
1732399532,8266cbdf0dafaed9dcfce61410cd45d7,Question,72,0,Pos_Final,17,<div>%0A          <img src='https://osf.io/download/54we2/' style='width:300px; height:auto;'><br>%0A          <p>Who do you think the emoji corresponds to?</p>%0A        </div>,The sender of the message.,NULL,589
1732399532,8266cbdf0dafaed9dcfce61410cd45d7,Question,102,0,Filler,116,<div>%0A          <img src='https://osf.io/download/r82kz/' style='width:300px; height:auto;'><br>%0A          <p>Who do you think the verb corresponds to?</p>%0A        </div>,The sender of the message.,NULL,522
1732399532,8266cbdf0dafaed9dcfce61410cd45d7,Question,45,0,Neg_Initial,10,<div>%0A          <img src='https://osf.io/download/3vepf/' style='width:300px; height:auto;'><br>%0A          <p>Who do you think the emoji corresponds to?</p>%0A        </div>,The sender of the message.,NULL,556
1732399532,8266cbdf0dafaed9dcfce61410cd45d7,Question,98,0,Filler,112,<div>%0A          <img src='https://osf.io/download/eac4w/' style='width:300px; height:auto;'><br>%0A          <p>Who do you think the verb corresponds to?</p>%0A        </div>,The sender of the message.,NULL,650
1732399532,8266cbdf0dafaed9dcfce61410cd45d7,Question,67,0,Pos_Initial,16,<div>%0A          <img src='https://osf.io/download/d8g5v/' style='width:300px; height:auto;'><br>%0A          <p>Who do you think the emoji corresponds to?</p>%0A        </div>,The sender of the message.,NULL,591
1732399532,8266cbdf0dafaed9dcfce61410cd45d7,Question,95,0,Filler,109,<div>%0A          <img src='https://osf.io/download/hc2ug/' style='width:300px; height:auto;'><br>%0A          <p>Who do you think the verb corresponds to?</p>%0A        </div>,The sender of the message.,NULL,543
1732399532,8266cbdf0dafaed9dcfce61410cd45d7,Question,34,0,Neg_Final,7,<div>%0A          <img src='https://osf.io/download/ru6c4/' style='width:300px; height:auto;'><br>%0A          <p>Who do you think the emoji corresponds to?</p>%0A        </div>,The sender of the message.,NULL,594
1732399532,8266cbdf0dafaed9dcfce61410cd45d7,Question,106,0,Filler,120,<div>%0A          <img src='https://osf.io/download/zjqvk/' style='width:300px; height:auto;'><br>%0A          <p>Who do you think the verb corresponds to?</p>%0A        </div>,The sender of the message.,NULL,962
1732399532,8266cbdf0dafaed9dcfce61410cd45d7,Question,56,0,Pos_Final,13,<div>%0A          <img src='https://osf.io/download/k78ay/' style='width:300px; height:auto;'><br>%0A          <p>Who do you think the emoji corresponds to?</p>%0A        </div>,Alice.,NULL,6768
1732399532,8266cbdf0dafaed9dcfce61410cd45d7,Question,101,0,Filler,115,<div>%0A          <img src='https://osf.io/download/r34uz/' style='width:300px; height:auto;'><br>%0A          <p>Who do you think the verb corresponds to?</p>%0A        </div>,Evan.,NULL,4256
1732399532,8266cbdf0dafaed9dcfce61410cd45d7,Question,61,0,Neg_Initial,14,<div>%0A          <img src='https://osf.io/download/xbk5r/' style='width:300px; height:auto;'><br>%0A          <p>Who do you think the emoji corresponds to?</p>%0A        </div>,Eve.,NULL,7735
1732399532,8266cbdf0dafaed9dcfce61410cd45d7,Question,100,0,Filler,114,<div>%0A          <img src='https://osf.io/download/xe6tp/' style='width:300px; height:auto;'><br>%0A          <p>Who do you think the verb corresponds to?</p>%0A        </div>,Brianna.,NULL,3823
1732399532,8266cbdf0dafaed9dcfce61410cd45d7,Question,83,0,Pos_Initial,20,<div>%0A          <img src='https://osf.io/download/ndt8k/' style='width:300px; height:auto;'><br>%0A          <p>Who do you think the emoji corresponds to?</p>%0A        </div>,Carl.,NULL,16404
1732399532,8266cbdf0dafaed9dcfce61410cd45d7,Question,99,0,Filler,113,<div>%0A          <img src='https://osf.io/download/u2cnd/' style='width:300px; height:auto;'><br>%0A          <p>Who do you think the verb corresponds to?</p>%0A        </div>,Carol.,NULL,2272
1732399532,8266cbdf0dafaed9dcfce61410cd45d7,Question,50,0,Neg_Final,11,<div>%0A          <img src='https://osf.io/download/6merj/' style='width:300px; height:auto;'><br>%0A          <p>Who do you think the emoji corresponds to?</p>%0A        </div>,Angelica.,NULL,2356
1732399532,8266cbdf0dafaed9dcfce61410cd45d7,Question,103,0,Filler,117,<div>%0A          <img src='https://osf.io/download/z4sp6/' style='width:300px; height:auto;'><br>%0A          <p>Who do you think the verb corresponds to?</p>%0A        </div>,Emma.,NULL,3654
1732399532,8266cbdf0dafaed9dcfce61410cd45d7,Question,40,0,Pos_Final,9,<div>%0A          <img src='https://osf.io/download/cy9az/' style='width:300px; height:auto;'><br>%0A          <p>Who do you think the emoji corresponds to?</p>%0A        </div>,Peter.,NULL,2601
1732399532,8266cbdf0dafaed9dcfce61410cd45d7,Question,104,0,Filler,118,<div>%0A          <img src='https://osf.io/download/kwpc6/' style='width:300px; height:auto;'><br>%0A          <p>Who do you think the verb corresponds to?</p>%0A        </div>,Samantha.,NULL,4137
1732399532,8266cbdf0dafaed9dcfce61410cd45d7,Question,29,0,Neg_Initial,6,<div>%0A          <img src='https://osf.io/download/2rf7y/' style='width:300px; height:auto;'><br>%0A          <p>Who do you think the emoji corresponds to?</p>%0A        </div>,Daniel.,NULL,2659
1732399532,8266cbdf0dafaed9dcfce61410cd45d7,Question,105,0,Filler,119,<div>%0A          <img src='https://osf.io/download/qbz7d/' style='width:300px; height:auto;'><br>%0A          <p>Who do you think the verb corresponds to?</p>%0A        </div>,Frank.,NULL,3204
1732399532,8266cbdf0dafaed9dcfce61410cd45d7,Question,51,0,Pos_Initial,12,<div>%0A          <img src='https://osf.io/download/ahb6r/' style='width:300px; height:auto;'><br>%0A          <p>Who do you think the emoji corresponds to?</p>%0A        </div>,Julia.,NULL,7959
1732399532,8266cbdf0dafaed9dcfce61410cd45d7,Question,89,0,Filler,103,<div>%0A          <img src='https://osf.io/download/f5s6z/' style='width:300px; height:auto;'><br>%0A          <p>Who do you think the verb corresponds to?</p>%0A        </div>,Oscar.,NULL,1414672
1732399532,8266cbdf0dafaed9dcfce61410cd45d7,Question,82,0,Neg_Final,19,<div>%0A          <img src='https://osf.io/download/jfhqg/' style='width:300px; height:auto;'><br>%0A          <p>Who do you think the emoji corresponds to?</p>%0A        </div>,Emily.,NULL,699
1732399532,8266cbdf0dafaed9dcfce61410cd45d7,Question,94,0,Filler,108,<div>%0A          <img src='https://osf.io/download/am6be/' style='width:300px; height:auto;'><br>%0A          <p>Who do you think the verb corresponds to?</p>%0A        </div>,Sarah.,NULL,654
1732399532,8266cbdf0dafaed9dcfce61410cd45d7,Question,8,0,Pos_Final,1,<div>%0A          <img src='https://osf.io/download/95y4v/' style='width:300px; height:auto;'><br>%0A          <p>Who do you think the emoji corresponds to?</p>%0A        </div>,Sophie.,NULL,538
1732399532,8266cbdf0dafaed9dcfce61410cd45d7,Question,93,0,Filler,107,<div>%0A          <img src='https://osf.io/download/yn9z5/' style='width:300px; height:auto;'><br>%0A          <p>Who do you think the verb corresponds to?</p>%0A        </div>,Troy.,NULL,497
1732399532,8266cbdf0dafaed9dcfce61410cd45d7,Question,13,0,Neg_Initial,2,<div>%0A          <img src='https://osf.io/download/wz9p6/' style='width:300px; height:auto;'><br>%0A          <p>Who do you think the emoji corresponds to?</p>%0A        </div>,Olivia.,NULL,533
1732399532,8266cbdf0dafaed9dcfce61410cd45d7,Question,91,0,Filler,105,<div>%0A          <img src='https://osf.io/download/d3h8v/' style='width:300px; height:auto;'><br>%0A          <p>Who do you think the verb corresponds to?</p>%0A        </div>,Sam.,NULL,583
1732399532,8266cbdf0dafaed9dcfce61410cd45d7,Question,19,0,Pos_Initial,4,<div>%0A          <img src='https://osf.io/download/fbwy2/' style='width:300px; height:auto;'><br>%0A          <p>Who do you think the emoji corresponds to?</p>%0A        </div>,Anne.,NULL,572
1732399532,8266cbdf0dafaed9dcfce61410cd45d7,Question,87,0,Filler,101,<div>%0A          <img src='https://osf.io/download/nzmy4/' style='width:300px; height:auto;'><br>%0A          <p>Who do you think the verb corresponds to?</p>%0A        </div>,Tim.,NULL,566
1732399532,8266cbdf0dafaed9dcfce61410cd45d7,Question,66,0,Neg_Final,15,<div>%0A          <img src='https://osf.io/download/q65eh/' style='width:300px; height:auto;'><br>%0A          <p>Who do you think the emoji corresponds to?</p>%0A        </div>,George.,NULL,744
#
# Results on Saturday November 23 2024 22:06:30 UTC.
# USER AGENT: Mozilla/5.0 (Windows NT 10.0; Win64; x64) AppleWebKit/537.36 (KHTML, like Gecko) Chrome/130.0.0.0 Safari/537.36
# Design number was non-random = 5
#
# Columns below this comment are as follows:
# 1. Time results were received.
# 2. MD5 hash that hopefully uniquely identifies participant.
# 3. Controller name.
# 4. Item number.
# 5. Element number.
# 6. Type.
# 7. Group.
# 8. Field name.
# 9. Field value.
1732399591,8266cbdf0dafaed9dcfce61410cd45d7,Form,5,0,intro,NULL,consent,yes
1732399591,8266cbdf0dafaed9dcfce61410cd45d7,Form,5,0,intro,NULL,_REACTION_TIME_,4525
# Columns below this comment are as follows:
# 1. Time results were received.
# 2. MD5 hash that hopefully uniquely identifies participant.
# 3. Controller name.
# 4. Item number.
# 5. Element number.
# 6. Type.
# 7. Group.
# 8. PennElementType.
# 9. PennElementName.
# 10. Parameter.
# 11. Value.
# 12. EventTime.
# 13. Comments.
1732399591,8266cbdf0dafaed9dcfce61410cd45d7,PennController,2,0,Intro1,NULL,PennController,2,_Trial_,Start,1732398178990,NULL
1732399591,8266cbdf0dafaed9dcfce61410cd45d7,PennController,2,0,Intro1,NULL,PennController,2,_Trial_,End,1732398200393,NULL
# The lines below this comment are in groups of 2.
# The formats of the lines in each of these groups are as follows:
#
# Line 1:
#     Col. 1: Time results were received.
#     Col. 2: MD5 hash that hopefully uniquely identifies participant.
#     Col. 3: Controller name.
#     Col. 4: Item number.
#     Col. 5: Element number.
#     Col. 6: Type.
#     Col. 7: Group.
#     Col. 8: Question (NULL if none).
#     Col. 9: Answer.
#     Col. 10: Whether or not answer was correct (NULL if N/A).
#     Col. 11: Time taken to answer.
# Line 2:
#     Col. 1: Time results were received.
#     Col. 2: MD5 hash that hopefully uniquely identifies participant.
#     Col. 3: Controller name.
#     Col. 4: Item number.
#     Col. 5: Element number.
#     Col. 6: Type.
#     Col. 7: Group.
#     Col. 8: PennElementType.
#     Col. 9: PennElementName.
#     Col. 10: Parameter.
#     Col. 11: Value.
#     Col. 12: EventTime.
#     Col. 13: Comments.
1732399591,8266cbdf0dafaed9dcfce61410cd45d7,Question,6,0,practice,201,Send me some practice items and I will put here...,Makes sense.,NULL,1957
1732399591,8266cbdf0dafaed9dcfce61410cd45d7,PennController,0,0,TrainE,NULL,PennController,0,_Trial_,Start,1732398202372,NULL
# The lines below this comment are in groups of 2.
# The formats of the lines in each of these groups are as follows:
#
# Line 1:
#     Col. 1: Time results were received.
#     Col. 2: MD5 hash that hopefully uniquely identifies participant.
#     Col. 3: Controller name.
#     Col. 4: Item number.
#     Col. 5: Element number.
#     Col. 6: Type.
#     Col. 7: Group.
#     Col. 8: PennElementType.
#     Col. 9: PennElementName.
#     Col. 10: Parameter.
#     Col. 11: Value.
#     Col. 12: EventTime.
#     Col. 13: Comments.
# Line 2:
#     Col. 1: Time results were received.
#     Col. 2: MD5 hash that hopefully uniquely identifies participant.
#     Col. 3: Controller name.
#     Col. 4: Item number.
#     Col. 5: Element number.
#     Col. 6: Type.
#     Col. 7: Group.
#     Col. 8: Question (NULL if none).
#     Col. 9: Answer.
#     Col. 10: Whether or not answer was correct (NULL if N/A).
#     Col. 11: Time taken to answer.
1732399591,8266cbdf0dafaed9dcfce61410cd45d7,PennController,0,0,TrainE,NULL,PennController,0,_Trial_,End,1732398203597,NULL
1732399591,8266cbdf0dafaed9dcfce61410cd45d7,Question,96,0,Filler,110,<div>%0A          <img src='https://osf.io/download/5qgsc/' style='width:300px; height:auto;'><br>%0A          <p>Who do you think the verb corresponds to?</p>%0A        </div>,Chloe.,NULL,7011
# Columns below this comment are as follows:
# 1. Time results were received.
# 2. MD5 hash that hopefully uniquely identifies participant.
# 3. Controller name.
# 4. Item number.
# 5. Element number.
# 6. Type.
# 7. Group.
# 8. Question (NULL if none).
# 9. Answer.
# 10. Whether or not answer was correct (NULL if N/A).
# 11. Time taken to answer.
1732399591,8266cbdf0dafaed9dcfce61410cd45d7,Question,24,0,Pos_Final,5,<div>%0A          <img src='https://osf.io/download/nv2se/' style='width:300px; height:auto;'><br>%0A          <p>Who do you think the emoji corresponds to?</p>%0A        </div>,Maya.,NULL,2227
1732399591,8266cbdf0dafaed9dcfce61410cd45d7,Question,90,0,Filler,104,<div>%0A          <img src='https://osf.io/download/zsmq5/' style='width:300px; height:auto;'><br>%0A          <p>Who do you think the verb corresponds to?</p>%0A        </div>,Ruby.,NULL,830
1732399591,8266cbdf0dafaed9dcfce61410cd45d7,Question,77,0,Neg_Initial,18,<div>%0A          <img src='https://osf.io/download/ktdym/' style='width:300px; height:auto;'><br>%0A          <p>Who do you think the emoji corresponds to?</p>%0A        </div>,Victoria.,NULL,681
1732399591,8266cbdf0dafaed9dcfce61410cd45d7,Question,92,0,Filler,106,<div>%0A          <img src='https://osf.io/download/p7arf/' style='width:300px; height:auto;'><br>%0A          <p>Who do you think the verb corresponds to?</p>%0A        </div>,The sender of the message.,NULL,957
1732399591,8266cbdf0dafaed9dcfce61410cd45d7,Question,35,0,Pos_Initial,8,<div>%0A          <img src='https://osf.io/download/52mj4/' style='width:300px; height:auto;'><br>%0A          <p>Who do you think the emoji corresponds to?</p>%0A        </div>,The sender of the message.,NULL,691
1732399591,8266cbdf0dafaed9dcfce61410cd45d7,Question,88,0,Filler,102,<div>%0A          <img src='https://osf.io/download/ehw8n/' style='width:300px; height:auto;'><br>%0A          <p>Who do you think the verb corresponds to?</p>%0A        </div>,The sender of the message.,NULL,765
1732399591,8266cbdf0dafaed9dcfce61410cd45d7,Question,18,0,Neg_Final,3,<div>%0A          <img src='https://osf.io/download/7xmyc/' style='width:300px; height:auto;'><br>%0A          <p>Who do you think the emoji corresponds to?</p>%0A        </div>,The sender of the message.,NULL,709
1732399591,8266cbdf0dafaed9dcfce61410cd45d7,Question,97,0,Filler,111,<div>%0A          <img src='https://osf.io/download/pmb4q/' style='width:300px; height:auto;'><br>%0A          <p>Who do you think the verb corresponds to?</p>%0A        </div>,The sender of the message.,NULL,606
1732399591,8266cbdf0dafaed9dcfce61410cd45d7,Question,72,0,Pos_Final,17,<div>%0A          <img src='https://osf.io/download/54we2/' style='width:300px; height:auto;'><br>%0A          <p>Who do you think the emoji corresponds to?</p>%0A        </div>,The sender of the message.,NULL,589
1732399591,8266cbdf0dafaed9dcfce61410cd45d7,Question,102,0,Filler,116,<div>%0A          <img src='https://osf.io/download/r82kz/' style='width:300px; height:auto;'><br>%0A          <p>Who do you think the verb corresponds to?</p>%0A        </div>,The sender of the message.,NULL,522
1732399591,8266cbdf0dafaed9dcfce61410cd45d7,Question,45,0,Neg_Initial,10,<div>%0A          <img src='https://osf.io/download/3vepf/' style='width:300px; height:auto;'><br>%0A          <p>Who do you think the emoji corresponds to?</p>%0A        </div>,The sender of the message.,NULL,556
1732399591,8266cbdf0dafaed9dcfce61410cd45d7,Question,98,0,Filler,112,<div>%0A          <img src='https://osf.io/download/eac4w/' style='width:300px; height:auto;'><br>%0A          <p>Who do you think the verb corresponds to?</p>%0A        </div>,The sender of the message.,NULL,650
1732399591,8266cbdf0dafaed9dcfce61410cd45d7,Question,67,0,Pos_Initial,16,<div>%0A          <img src='https://osf.io/download/d8g5v/' style='width:300px; height:auto;'><br>%0A          <p>Who do you think the emoji corresponds to?</p>%0A        </div>,The sender of the message.,NULL,591
1732399591,8266cbdf0dafaed9dcfce61410cd45d7,Question,95,0,Filler,109,<div>%0A          <img src='https://osf.io/download/hc2ug/' style='width:300px; height:auto;'><br>%0A          <p>Who do you think the verb corresponds to?</p>%0A        </div>,The sender of the message.,NULL,543
1732399591,8266cbdf0dafaed9dcfce61410cd45d7,Question,34,0,Neg_Final,7,<div>%0A          <img src='https://osf.io/download/ru6c4/' style='width:300px; height:auto;'><br>%0A          <p>Who do you think the emoji corresponds to?</p>%0A        </div>,The sender of the message.,NULL,594
1732399591,8266cbdf0dafaed9dcfce61410cd45d7,Question,106,0,Filler,120,<div>%0A          <img src='https://osf.io/download/zjqvk/' style='width:300px; height:auto;'><br>%0A          <p>Who do you think the verb corresponds to?</p>%0A        </div>,The sender of the message.,NULL,962
1732399591,8266cbdf0dafaed9dcfce61410cd45d7,Question,56,0,Pos_Final,13,<div>%0A          <img src='https://osf.io/download/k78ay/' style='width:300px; height:auto;'><br>%0A          <p>Who do you think the emoji corresponds to?</p>%0A        </div>,Alice.,NULL,6768
1732399591,8266cbdf0dafaed9dcfce61410cd45d7,Question,101,0,Filler,115,<div>%0A          <img src='https://osf.io/download/r34uz/' style='width:300px; height:auto;'><br>%0A          <p>Who do you think the verb corresponds to?</p>%0A        </div>,Evan.,NULL,4256
1732399591,8266cbdf0dafaed9dcfce61410cd45d7,Question,61,0,Neg_Initial,14,<div>%0A          <img src='https://osf.io/download/xbk5r/' style='width:300px; height:auto;'><br>%0A          <p>Who do you think the emoji corresponds to?</p>%0A        </div>,Eve.,NULL,7735
1732399591,8266cbdf0dafaed9dcfce61410cd45d7,Question,100,0,Filler,114,<div>%0A          <img src='https://osf.io/download/xe6tp/' style='width:300px; height:auto;'><br>%0A          <p>Who do you think the verb corresponds to?</p>%0A        </div>,Brianna.,NULL,3823
1732399591,8266cbdf0dafaed9dcfce61410cd45d7,Question,83,0,Pos_Initial,20,<div>%0A          <img src='https://osf.io/download/ndt8k/' style='width:300px; height:auto;'><br>%0A          <p>Who do you think the emoji corresponds to?</p>%0A        </div>,Carl.,NULL,16404
1732399591,8266cbdf0dafaed9dcfce61410cd45d7,Question,99,0,Filler,113,<div>%0A          <img src='https://osf.io/download/u2cnd/' style='width:300px; height:auto;'><br>%0A          <p>Who do you think the verb corresponds to?</p>%0A        </div>,Carol.,NULL,2272
1732399591,8266cbdf0dafaed9dcfce61410cd45d7,Question,50,0,Neg_Final,11,<div>%0A          <img src='https://osf.io/download/6merj/' style='width:300px; height:auto;'><br>%0A          <p>Who do you think the emoji corresponds to?</p>%0A        </div>,Angelica.,NULL,2356
1732399591,8266cbdf0dafaed9dcfce61410cd45d7,Question,103,0,Filler,117,<div>%0A          <img src='https://osf.io/download/z4sp6/' style='width:300px; height:auto;'><br>%0A          <p>Who do you think the verb corresponds to?</p>%0A        </div>,Emma.,NULL,3654
1732399591,8266cbdf0dafaed9dcfce61410cd45d7,Question,40,0,Pos_Final,9,<div>%0A          <img src='https://osf.io/download/cy9az/' style='width:300px; height:auto;'><br>%0A          <p>Who do you think the emoji corresponds to?</p>%0A        </div>,Peter.,NULL,2601
1732399591,8266cbdf0dafaed9dcfce61410cd45d7,Question,104,0,Filler,118,<div>%0A          <img src='https://osf.io/download/kwpc6/' style='width:300px; height:auto;'><br>%0A          <p>Who do you think the verb corresponds to?</p>%0A        </div>,Samantha.,NULL,4137
1732399591,8266cbdf0dafaed9dcfce61410cd45d7,Question,29,0,Neg_Initial,6,<div>%0A          <img src='https://osf.io/download/2rf7y/' style='width:300px; height:auto;'><br>%0A          <p>Who do you think the emoji corresponds to?</p>%0A        </div>,Daniel.,NULL,2659
1732399591,8266cbdf0dafaed9dcfce61410cd45d7,Question,105,0,Filler,119,<div>%0A          <img src='https://osf.io/download/qbz7d/' style='width:300px; height:auto;'><br>%0A          <p>Who do you think the verb corresponds to?</p>%0A        </div>,Frank.,NULL,3204
1732399591,8266cbdf0dafaed9dcfce61410cd45d7,Question,51,0,Pos_Initial,12,<div>%0A          <img src='https://osf.io/download/ahb6r/' style='width:300px; height:auto;'><br>%0A          <p>Who do you think the emoji corresponds to?</p>%0A        </div>,Julia.,NULL,7959
1732399591,8266cbdf0dafaed9dcfce61410cd45d7,Question,89,0,Filler,103,<div>%0A          <img src='https://osf.io/download/f5s6z/' style='width:300px; height:auto;'><br>%0A          <p>Who do you think the verb corresponds to?</p>%0A        </div>,Oscar.,NULL,1414672
1732399591,8266cbdf0dafaed9dcfce61410cd45d7,Question,82,0,Neg_Final,19,<div>%0A          <img src='https://osf.io/download/jfhqg/' style='width:300px; height:auto;'><br>%0A          <p>Who do you think the emoji corresponds to?</p>%0A        </div>,Emily.,NULL,699
1732399591,8266cbdf0dafaed9dcfce61410cd45d7,Question,94,0,Filler,108,<div>%0A          <img src='https://osf.io/download/am6be/' style='width:300px; height:auto;'><br>%0A          <p>Who do you think the verb corresponds to?</p>%0A        </div>,Sarah.,NULL,654
1732399591,8266cbdf0dafaed9dcfce61410cd45d7,Question,8,0,Pos_Final,1,<div>%0A          <img src='https://osf.io/download/95y4v/' style='width:300px; height:auto;'><br>%0A          <p>Who do you think the emoji corresponds to?</p>%0A        </div>,Sophie.,NULL,538
1732399591,8266cbdf0dafaed9dcfce61410cd45d7,Question,93,0,Filler,107,<div>%0A          <img src='https://osf.io/download/yn9z5/' style='width:300px; height:auto;'><br>%0A          <p>Who do you think the verb corresponds to?</p>%0A        </div>,Troy.,NULL,497
1732399591,8266cbdf0dafaed9dcfce61410cd45d7,Question,13,0,Neg_Initial,2,<div>%0A          <img src='https://osf.io/download/wz9p6/' style='width:300px; height:auto;'><br>%0A          <p>Who do you think the emoji corresponds to?</p>%0A        </div>,Olivia.,NULL,533
1732399591,8266cbdf0dafaed9dcfce61410cd45d7,Question,91,0,Filler,105,<div>%0A          <img src='https://osf.io/download/d3h8v/' style='width:300px; height:auto;'><br>%0A          <p>Who do you think the verb corresponds to?</p>%0A        </div>,Sam.,NULL,583
1732399591,8266cbdf0dafaed9dcfce61410cd45d7,Question,19,0,Pos_Initial,4,<div>%0A          <img src='https://osf.io/download/fbwy2/' style='width:300px; height:auto;'><br>%0A          <p>Who do you think the emoji corresponds to?</p>%0A        </div>,Anne.,NULL,572
1732399591,8266cbdf0dafaed9dcfce61410cd45d7,Question,87,0,Filler,101,<div>%0A          <img src='https://osf.io/download/nzmy4/' style='width:300px; height:auto;'><br>%0A          <p>Who do you think the verb corresponds to?</p>%0A        </div>,Tim.,NULL,566
1732399591,8266cbdf0dafaed9dcfce61410cd45d7,Question,66,0,Neg_Final,15,<div>%0A          <img src='https://osf.io/download/q65eh/' style='width:300px; height:auto;'><br>%0A          <p>Who do you think the emoji corresponds to?</p>%0A        </div>,George.,NULL,744
# Columns below this comment are as follows:
# 1. Time results were received.
# 2. MD5 hash that hopefully uniquely identifies participant.
# 3. Controller name.
# 4. Item number.
# 5. Element number.
# 6. Type.
# 7. Group.
# 8. PennElementType.
# 9. PennElementName.
# 10. Parameter.
# 11. Value.
# 12. EventTime.
# 13. Comments.
1732399591,8266cbdf0dafaed9dcfce61410cd45d7,PennController,1,0,Outro,NULL,PennController,1,_Trial_,Start,1732399711690,NULL
1732399591,8266cbdf0dafaed9dcfce61410cd45d7,PennController,1,0,Outro,NULL,DropDown,gender,Selected,Female,1732399738915,0
1732399591,8266cbdf0dafaed9dcfce61410cd45d7,PennController,1,0,Outro,NULL,DropDown,emoji-use,Selected,Occasionally,1732399740986,1
1732399591,8266cbdf0dafaed9dcfce61410cd45d7,PennController,1,0,Outro,NULL,DropDown,emoji-rec,Selected,Everyday,1732399743192,0
1732399591,8266cbdf0dafaed9dcfce61410cd45d7,PennController,1,0,Outro,NULL,DropDown,age,Selected,60+,1732399746054,4
1732399591,8266cbdf0dafaed9dcfce61410cd45d7,PennController,1,0,Outro,NULL,PennController,1,_Trial_,End,1732399769920,NULL
#
# Results on Sunday November 24 2024 15:08:17 UTC.
# USER AGENT: Mozilla/5.0 (Windows NT 10.0; Win64; x64; rv:132.0) Gecko/20100101 Firefox/132.0
# Design number was non-random = 7
#
# Columns below this comment are as follows:
# 1. Time results were received.
# 2. MD5 hash that hopefully uniquely identifies participant.
# 3. Controller name.
# 4. Item number.
# 5. Element number.
# 6. Type.
# 7. Group.
# 8. Field name.
# 9. Field value.
1732460898,cf1a953dffd2eac7a8e2c5a7c5b51660,Form,5,0,intro,NULL,consent,yes
1732460898,cf1a953dffd2eac7a8e2c5a7c5b51660,Form,5,0,intro,NULL,_REACTION_TIME_,2183
# Columns below this comment are as follows:
# 1. Time results were received.
# 2. MD5 hash that hopefully uniquely identifies participant.
# 3. Controller name.
# 4. Item number.
# 5. Element number.
# 6. Type.
# 7. Group.
# 8. PennElementType.
# 9. PennElementName.
# 10. Parameter.
# 11. Value.
# 12. EventTime.
# 13. Comments.
1732460898,cf1a953dffd2eac7a8e2c5a7c5b51660,PennController,2,0,Intro1,NULL,PennController,2,_Trial_,Start,1732461025625,NULL
1732460898,cf1a953dffd2eac7a8e2c5a7c5b51660,PennController,2,0,Intro1,NULL,PennController,2,_Trial_,End,1732461026540,NULL
# Columns below this comment are as follows:
# 1. Time results were received.
# 2. MD5 hash that hopefully uniquely identifies participant.
# 3. Controller name.
# 4. Item number.
# 5. Element number.
# 6. Type.
# 7. Group.
# 8. Question (NULL if none).
# 9. Answer.
# 10. Whether or not answer was correct (NULL if N/A).
# 11. Time taken to answer.
1732460898,cf1a953dffd2eac7a8e2c5a7c5b51660,Question,6,0,practice,201,<p>The emoji expresses the emotions of:</p>,The sender of the message.,NULL,323
1732460898,cf1a953dffd2eac7a8e2c5a7c5b51660,Question,7,0,practice,202,<p>The verb expresses the emotions of:</p>,The sender of the message.,NULL,504
# Columns below this comment are as follows:
# 1. Time results were received.
# 2. MD5 hash that hopefully uniquely identifies participant.
# 3. Controller name.
# 4. Item number.
# 5. Element number.
# 6. Type.
# 7. Group.
# 8. PennElementType.
# 9. PennElementName.
# 10. Parameter.
# 11. Value.
# 12. EventTime.
# 13. Comments.
1732460898,cf1a953dffd2eac7a8e2c5a7c5b51660,PennController,0,0,TrainE,NULL,PennController,0,_Trial_,Start,1732461027382,NULL
1732460898,cf1a953dffd2eac7a8e2c5a7c5b51660,PennController,0,0,TrainE,NULL,PennController,0,_Trial_,End,1732461027909,NULL
# Columns below this comment are as follows:
# 1. Time results were received.
# 2. MD5 hash that hopefully uniquely identifies participant.
# 3. Controller name.
# 4. Item number.
# 5. Element number.
# 6. Type.
# 7. Group.
# 8. Question (NULL if none).
# 9. Answer.
# 10. Whether or not answer was correct (NULL if N/A).
# 11. Time taken to answer.
1732460898,cf1a953dffd2eac7a8e2c5a7c5b51660,Question,95,0,Filler,108,<div style='padding-left:200px'>%0A          <img src='https://osf.io/download/am6be/' style='width:500px; height:auto; margin:50px 200px'><br><br>%0A        </div>%0A        <div>%0A          <p>The verb expresses the emotions of:</p>%0A        </div>,Anthony.,NULL,3065
1732460898,cf1a953dffd2eac7a8e2c5a7c5b51660,Question,59,0,Neg_Final,13,<div style='padding-left:200px'>%0A          <img src='https://osf.io/download/7yjpm/' style='width:500px; height:auto; margin:50px 200px'><br><br>%0A        </div>%0A        <div>%0A          <p>The emoji expresses the emotions of:</p>%0A        </div>,Alice.,NULL,3638
1732460898,cf1a953dffd2eac7a8e2c5a7c5b51660,Question,107,0,Filler,120,<div style='padding-left:200px'>%0A          <img src='https://osf.io/download/zjqvk/' style='width:500px; height:auto; margin:50px 200px'><br><br>%0A        </div>%0A        <div>%0A          <p>The verb expresses the emotions of:</p>%0A        </div>,Hugh.,NULL,3176
1732460898,cf1a953dffd2eac7a8e2c5a7c5b51660,Question,12,0,Pos_Initial,2,<div style='padding-left:200px'>%0A          <img src='https://osf.io/download/vux9k/' style='width:500px; height:auto; margin:50px 200px'><br><br>%0A        </div>%0A        <div>%0A          <p>The emoji expresses the emotions of:</p>%0A        </div>,Susie.,NULL,4123
1732460898,cf1a953dffd2eac7a8e2c5a7c5b51660,Question,102,0,Filler,115,<div style='padding-left:200px'>%0A          <img src='https://osf.io/download/r34uz/' style='width:500px; height:auto; margin:50px 200px'><br><br>%0A        </div>%0A        <div>%0A          <p>The verb expresses the emotions of:</p>%0A        </div>,The sender of the message.,NULL,16731
1732460898,cf1a953dffd2eac7a8e2c5a7c5b51660,Question,54,0,Neg_Initial,12,<div style='padding-left:200px'>%0A          <img src='https://osf.io/download/edtz5/' style='width:500px; height:auto; margin:50px 200px'><br><br>%0A        </div>%0A        <div>%0A          <p>The emoji expresses the emotions of:</p>%0A        </div>,The sender of the message.,NULL,2191
1732460898,cf1a953dffd2eac7a8e2c5a7c5b51660,Question,97,0,Filler,110,<div style='padding-left:200px'>%0A          <img src='https://osf.io/download/5qgsc/' style='width:500px; height:auto; margin:50px 200px'><br><br>%0A        </div>%0A        <div>%0A          <p>The verb expresses the emotions of:</p>%0A        </div>,The sender of the message.,NULL,2052
1732460898,cf1a953dffd2eac7a8e2c5a7c5b51660,Question,81,0,Pos_Final,19,<div style='padding-left:200px'>%0A          <img src='https://osf.io/download/89xer/' style='width:500px; height:auto; margin:50px 200px'><br><br>%0A        </div>%0A        <div>%0A          <p>The emoji expresses the emotions of:</p>%0A        </div>,The sender of the message.,NULL,2948
1732460898,cf1a953dffd2eac7a8e2c5a7c5b51660,Question,106,0,Filler,119,<div style='padding-left:200px'>%0A          <img src='https://osf.io/download/qbz7d/' style='width:500px; height:auto; margin:50px 200px'><br><br>%0A        </div>%0A        <div>%0A          <p>The verb expresses the emotions of:</p>%0A        </div>,Frank.,NULL,8076
1732460898,cf1a953dffd2eac7a8e2c5a7c5b51660,Question,11,0,Neg_Final,1,<div style='padding-left:200px'>%0A          <img src='https://osf.io/download/wsh3q/' style='width:500px; height:auto; margin:50px 200px'><br><br>%0A        </div>%0A        <div>%0A          <p>The emoji expresses the emotions of:</p>%0A        </div>,The sender of the message.,NULL,366
1732460898,cf1a953dffd2eac7a8e2c5a7c5b51660,Question,105,0,Filler,118,<div style='padding-left:200px'>%0A          <img src='https://osf.io/download/kwpc6/' style='width:500px; height:auto; margin:50px 200px'><br><br>%0A        </div>%0A        <div>%0A          <p>The verb expresses the emotions of:</p>%0A        </div>,The sender of the message.,NULL,134
1732460898,cf1a953dffd2eac7a8e2c5a7c5b51660,Question,76,0,Pos_Initial,18,<div style='padding-left:200px'>%0A          <img src='https://osf.io/download/47sme/' style='width:500px; height:auto; margin:50px 200px'><br><br>%0A        </div>%0A        <div>%0A          <p>The emoji expresses the emotions of:</p>%0A        </div>,The sender of the message.,NULL,129
1732460898,cf1a953dffd2eac7a8e2c5a7c5b51660,Question,92,0,Filler,105,<div style='padding-left:200px'>%0A          <img src='https://osf.io/download/d3h8v/' style='width:500px; height:auto; margin:50px 200px'><br><br>%0A        </div>%0A        <div>%0A          <p>The verb expresses the emotions of:</p>%0A        </div>,The sender of the message.,NULL,121
1732460898,cf1a953dffd2eac7a8e2c5a7c5b51660,Question,86,0,Neg_Initial,20,<div style='padding-left:200px'>%0A          <img src='https://osf.io/download/dnv29/' style='width:500px; height:auto; margin:50px 200px'><br><br>%0A        </div>%0A        <div>%0A          <p>The emoji expresses the emotions of:</p>%0A        </div>,The sender of the message.,NULL,127
1732460898,cf1a953dffd2eac7a8e2c5a7c5b51660,Question,96,0,Filler,109,<div style='padding-left:200px'>%0A          <img src='https://osf.io/download/hc2ug/' style='width:500px; height:auto; margin:50px 200px'><br><br>%0A        </div>%0A        <div>%0A          <p>The verb expresses the emotions of:</p>%0A        </div>,The sender of the message.,NULL,138
1732460898,cf1a953dffd2eac7a8e2c5a7c5b51660,Question,65,0,Pos_Final,15,<div style='padding-left:200px'>%0A          <img src='https://osf.io/download/rebhs/' style='width:500px; height:auto; margin:50px 200px'><br><br>%0A        </div>%0A        <div>%0A          <p>The emoji expresses the emotions of:</p>%0A        </div>,The sender of the message.,NULL,137
1732460898,cf1a953dffd2eac7a8e2c5a7c5b51660,Question,91,0,Filler,104,<div style='padding-left:200px'>%0A          <img src='https://osf.io/download/zsmq5/' style='width:500px; height:auto; margin:50px 200px'><br><br>%0A        </div>%0A        <div>%0A          <p>The verb expresses the emotions of:</p>%0A        </div>,The sender of the message.,NULL,147
1732460898,cf1a953dffd2eac7a8e2c5a7c5b51660,Question,43,0,Neg_Final,9,<div style='padding-left:200px'>%0A          <img src='https://osf.io/download/7su95/' style='width:500px; height:auto; margin:50px 200px'><br><br>%0A        </div>%0A        <div>%0A          <p>The emoji expresses the emotions of:</p>%0A        </div>,The sender of the message.,NULL,106
1732460898,cf1a953dffd2eac7a8e2c5a7c5b51660,Question,104,0,Filler,117,<div style='padding-left:200px'>%0A          <img src='https://osf.io/download/z4sp6/' style='width:500px; height:auto; margin:50px 200px'><br><br>%0A        </div>%0A        <div>%0A          <p>The verb expresses the emotions of:</p>%0A        </div>,The sender of the message.,NULL,135
1732460898,cf1a953dffd2eac7a8e2c5a7c5b51660,Question,28,0,Pos_Initial,6,<div style='padding-left:200px'>%0A          <img src='https://osf.io/download/zmdqe/' style='width:500px; height:auto; margin:50px 200px'><br><br>%0A        </div>%0A        <div>%0A          <p>The emoji expresses the emotions of:</p>%0A        </div>,The sender of the message.,NULL,136
1732460898,cf1a953dffd2eac7a8e2c5a7c5b51660,Question,89,0,Filler,102,<div style='padding-left:200px'>%0A          <img src='https://osf.io/download/ehw8n/' style='width:500px; height:auto; margin:50px 200px'><br><br>%0A        </div>%0A        <div>%0A          <p>The verb expresses the emotions of:</p>%0A        </div>,The sender of the message.,NULL,139
1732460898,cf1a953dffd2eac7a8e2c5a7c5b51660,Question,70,0,Neg_Initial,16,<div style='padding-left:200px'>%0A          <img src='https://osf.io/download/z7xcp/' style='width:500px; height:auto; margin:50px 200px'><br><br>%0A        </div>%0A        <div>%0A          <p>The emoji expresses the emotions of:</p>%0A        </div>,The sender of the message.,NULL,153
1732460898,cf1a953dffd2eac7a8e2c5a7c5b51660,Question,94,0,Filler,107,<div style='padding-left:200px'>%0A          <img src='https://osf.io/download/yn9z5/' style='width:500px; height:auto; margin:50px 200px'><br><br>%0A        </div>%0A        <div>%0A          <p>The verb expresses the emotions of:</p>%0A        </div>,The sender of the message.,NULL,137
1732460898,cf1a953dffd2eac7a8e2c5a7c5b51660,Question,49,0,Pos_Final,11,<div style='padding-left:200px'>%0A          <img src='https://osf.io/download/gsm2t/' style='width:500px; height:auto; margin:50px 200px'><br><br>%0A        </div>%0A        <div>%0A          <p>The emoji expresses the emotions of:</p>%0A        </div>,The sender of the message.,NULL,139
1732460898,cf1a953dffd2eac7a8e2c5a7c5b51660,Question,93,0,Filler,106,<div style='padding-left:200px'>%0A          <img src='https://osf.io/download/p7arf/' style='width:500px; height:auto; margin:50px 200px'><br><br>%0A        </div>%0A        <div>%0A          <p>The verb expresses the emotions of:</p>%0A        </div>,The sender of the message.,NULL,137
1732460898,cf1a953dffd2eac7a8e2c5a7c5b51660,Question,75,0,Neg_Final,17,<div style='padding-left:200px'>%0A          <img src='https://osf.io/download/63xgt/' style='width:500px; height:auto; margin:50px 200px'><br><br>%0A        </div>%0A        <div>%0A          <p>The emoji expresses the emotions of:</p>%0A        </div>,The sender of the message.,NULL,132
1732460898,cf1a953dffd2eac7a8e2c5a7c5b51660,Question,103,0,Filler,116,<div style='padding-left:200px'>%0A          <img src='https://osf.io/download/r82kz/' style='width:500px; height:auto; margin:50px 200px'><br><br>%0A        </div>%0A        <div>%0A          <p>The verb expresses the emotions of:</p>%0A        </div>,The sender of the message.,NULL,136
1732460898,cf1a953dffd2eac7a8e2c5a7c5b51660,Question,44,0,Pos_Initial,10,<div style='padding-left:200px'>%0A          <img src='https://osf.io/download/5ea39/' style='width:500px; height:auto; margin:50px 200px'><br><br>%0A        </div>%0A        <div>%0A          <p>The emoji expresses the emotions of:</p>%0A        </div>,The sender of the message.,NULL,147
1732460898,cf1a953dffd2eac7a8e2c5a7c5b51660,Question,99,0,Filler,112,<div style='padding-left:200px'>%0A          <img src='https://osf.io/download/eac4w/' style='width:500px; height:auto; margin:50px 200px'><br><br>%0A        </div>%0A        <div>%0A          <p>The verb expresses the emotions of:</p>%0A        </div>,The sender of the message.,NULL,125
1732460898,cf1a953dffd2eac7a8e2c5a7c5b51660,Question,22,0,Neg_Initial,4,<div style='padding-left:200px'>%0A          <img src='https://osf.io/download/4m8tn/' style='width:500px; height:auto; margin:50px 200px'><br><br>%0A        </div>%0A        <div>%0A          <p>The emoji expresses the emotions of:</p>%0A        </div>,The sender of the message.,NULL,137
1732460898,cf1a953dffd2eac7a8e2c5a7c5b51660,Question,101,0,Filler,114,<div style='padding-left:200px'>%0A          <img src='https://osf.io/download/xe6tp/' style='width:500px; height:auto; margin:50px 200px'><br><br>%0A        </div>%0A        <div>%0A          <p>The verb expresses the emotions of:</p>%0A        </div>,The sender of the message.,NULL,147
1732460898,cf1a953dffd2eac7a8e2c5a7c5b51660,Question,17,0,Pos_Final,3,<div style='padding-left:200px'>%0A          <img src='https://osf.io/download/rb7n5/' style='width:500px; height:auto; margin:50px 200px'><br><br>%0A        </div>%0A        <div>%0A          <p>The emoji expresses the emotions of:</p>%0A        </div>,The sender of the message.,NULL,144
1732460898,cf1a953dffd2eac7a8e2c5a7c5b51660,Question,98,0,Filler,111,<div style='padding-left:200px'>%0A          <img src='https://osf.io/download/pmb4q/' style='width:500px; height:auto; margin:50px 200px'><br><br>%0A        </div>%0A        <div>%0A          <p>The verb expresses the emotions of:</p>%0A        </div>,The sender of the message.,NULL,144
1732460898,cf1a953dffd2eac7a8e2c5a7c5b51660,Question,27,0,Neg_Final,5,<div style='padding-left:200px'>%0A          <img src='https://osf.io/download/jmyt9/' style='width:500px; height:auto; margin:50px 200px'><br><br>%0A        </div>%0A        <div>%0A          <p>The emoji expresses the emotions of:</p>%0A        </div>,The sender of the message.,NULL,148
1732460898,cf1a953dffd2eac7a8e2c5a7c5b51660,Question,88,0,Filler,101,<div style='padding-left:200px'>%0A          <img src='https://osf.io/download/nzmy4/' style='width:500px; height:auto; margin:50px 200px'><br><br>%0A        </div>%0A        <div>%0A          <p>The verb expresses the emotions of:</p>%0A        </div>,The sender of the message.,NULL,134
1732460898,cf1a953dffd2eac7a8e2c5a7c5b51660,Question,60,0,Pos_Initial,14,<div style='padding-left:200px'>%0A          <img src='https://osf.io/download/bmdex/' style='width:500px; height:auto; margin:50px 200px'><br><br>%0A        </div>%0A        <div>%0A          <p>The emoji expresses the emotions of:</p>%0A        </div>,The sender of the message.,NULL,137
1732460898,cf1a953dffd2eac7a8e2c5a7c5b51660,Question,100,0,Filler,113,<div style='padding-left:200px'>%0A          <img src='https://osf.io/download/u2cnd/' style='width:500px; height:auto; margin:50px 200px'><br><br>%0A        </div>%0A        <div>%0A          <p>The verb expresses the emotions of:</p>%0A        </div>,The sender of the message.,NULL,146
1732460898,cf1a953dffd2eac7a8e2c5a7c5b51660,Question,38,0,Neg_Initial,8,<div style='padding-left:200px'>%0A          <img src='https://osf.io/download/hscdx/' style='width:500px; height:auto; margin:50px 200px'><br><br>%0A        </div>%0A        <div>%0A          <p>The emoji expresses the emotions of:</p>%0A        </div>,The sender of the message.,NULL,148
1732460898,cf1a953dffd2eac7a8e2c5a7c5b51660,Question,90,0,Filler,103,<div style='padding-left:200px'>%0A          <img src='https://osf.io/download/f5s6z/' style='width:500px; height:auto; margin:50px 200px'><br><br>%0A        </div>%0A        <div>%0A          <p>The verb expresses the emotions of:</p>%0A        </div>,The sender of the message.,NULL,164
1732460898,cf1a953dffd2eac7a8e2c5a7c5b51660,Question,33,0,Pos_Final,7,<div style='padding-left:200px'>%0A          <img src='https://osf.io/download/rm4hb/' style='width:500px; height:auto; margin:50px 200px'><br><br>%0A        </div>%0A        <div>%0A          <p>The emoji expresses the emotions of:</p>%0A        </div>,The sender of the message.,NULL,356
#
# Results on Sunday November 24 2024 15:08:37 UTC.
# USER AGENT: Mozilla/5.0 (Windows NT 10.0; Win64; x64; rv:132.0) Gecko/20100101 Firefox/132.0
# Design number was non-random = 7
#
# Columns below this comment are as follows:
# 1. Time results were received.
# 2. MD5 hash that hopefully uniquely identifies participant.
# 3. Controller name.
# 4. Item number.
# 5. Element number.
# 6. Type.
# 7. Group.
# 8. Field name.
# 9. Field value.
1732460918,cf1a953dffd2eac7a8e2c5a7c5b51660,Form,5,0,intro,NULL,consent,yes
1732460918,cf1a953dffd2eac7a8e2c5a7c5b51660,Form,5,0,intro,NULL,_REACTION_TIME_,2183
# Columns below this comment are as follows:
# 1. Time results were received.
# 2. MD5 hash that hopefully uniquely identifies participant.
# 3. Controller name.
# 4. Item number.
# 5. Element number.
# 6. Type.
# 7. Group.
# 8. PennElementType.
# 9. PennElementName.
# 10. Parameter.
# 11. Value.
# 12. EventTime.
# 13. Comments.
1732460918,cf1a953dffd2eac7a8e2c5a7c5b51660,PennController,2,0,Intro1,NULL,PennController,2,_Trial_,Start,1732461025625,NULL
1732460918,cf1a953dffd2eac7a8e2c5a7c5b51660,PennController,2,0,Intro1,NULL,PennController,2,_Trial_,End,1732461026540,NULL
# Columns below this comment are as follows:
# 1. Time results were received.
# 2. MD5 hash that hopefully uniquely identifies participant.
# 3. Controller name.
# 4. Item number.
# 5. Element number.
# 6. Type.
# 7. Group.
# 8. Question (NULL if none).
# 9. Answer.
# 10. Whether or not answer was correct (NULL if N/A).
# 11. Time taken to answer.
1732460918,cf1a953dffd2eac7a8e2c5a7c5b51660,Question,6,0,practice,201,<p>The emoji expresses the emotions of:</p>,The sender of the message.,NULL,323
1732460918,cf1a953dffd2eac7a8e2c5a7c5b51660,Question,7,0,practice,202,<p>The verb expresses the emotions of:</p>,The sender of the message.,NULL,504
# Columns below this comment are as follows:
# 1. Time results were received.
# 2. MD5 hash that hopefully uniquely identifies participant.
# 3. Controller name.
# 4. Item number.
# 5. Element number.
# 6. Type.
# 7. Group.
# 8. PennElementType.
# 9. PennElementName.
# 10. Parameter.
# 11. Value.
# 12. EventTime.
# 13. Comments.
1732460918,cf1a953dffd2eac7a8e2c5a7c5b51660,PennController,0,0,TrainE,NULL,PennController,0,_Trial_,Start,1732461027382,NULL
1732460918,cf1a953dffd2eac7a8e2c5a7c5b51660,PennController,0,0,TrainE,NULL,PennController,0,_Trial_,End,1732461027909,NULL
# Columns below this comment are as follows:
# 1. Time results were received.
# 2. MD5 hash that hopefully uniquely identifies participant.
# 3. Controller name.
# 4. Item number.
# 5. Element number.
# 6. Type.
# 7. Group.
# 8. Question (NULL if none).
# 9. Answer.
# 10. Whether or not answer was correct (NULL if N/A).
# 11. Time taken to answer.
1732460918,cf1a953dffd2eac7a8e2c5a7c5b51660,Question,95,0,Filler,108,<div style='padding-left:200px'>%0A          <img src='https://osf.io/download/am6be/' style='width:500px; height:auto; margin:50px 200px'><br><br>%0A        </div>%0A        <div>%0A          <p>The verb expresses the emotions of:</p>%0A        </div>,Anthony.,NULL,3065
1732460918,cf1a953dffd2eac7a8e2c5a7c5b51660,Question,59,0,Neg_Final,13,<div style='padding-left:200px'>%0A          <img src='https://osf.io/download/7yjpm/' style='width:500px; height:auto; margin:50px 200px'><br><br>%0A        </div>%0A        <div>%0A          <p>The emoji expresses the emotions of:</p>%0A        </div>,Alice.,NULL,3638
1732460918,cf1a953dffd2eac7a8e2c5a7c5b51660,Question,107,0,Filler,120,<div style='padding-left:200px'>%0A          <img src='https://osf.io/download/zjqvk/' style='width:500px; height:auto; margin:50px 200px'><br><br>%0A        </div>%0A        <div>%0A          <p>The verb expresses the emotions of:</p>%0A        </div>,Hugh.,NULL,3176
1732460918,cf1a953dffd2eac7a8e2c5a7c5b51660,Question,12,0,Pos_Initial,2,<div style='padding-left:200px'>%0A          <img src='https://osf.io/download/vux9k/' style='width:500px; height:auto; margin:50px 200px'><br><br>%0A        </div>%0A        <div>%0A          <p>The emoji expresses the emotions of:</p>%0A        </div>,Susie.,NULL,4123
1732460918,cf1a953dffd2eac7a8e2c5a7c5b51660,Question,102,0,Filler,115,<div style='padding-left:200px'>%0A          <img src='https://osf.io/download/r34uz/' style='width:500px; height:auto; margin:50px 200px'><br><br>%0A        </div>%0A        <div>%0A          <p>The verb expresses the emotions of:</p>%0A        </div>,The sender of the message.,NULL,16731
1732460918,cf1a953dffd2eac7a8e2c5a7c5b51660,Question,54,0,Neg_Initial,12,<div style='padding-left:200px'>%0A          <img src='https://osf.io/download/edtz5/' style='width:500px; height:auto; margin:50px 200px'><br><br>%0A        </div>%0A        <div>%0A          <p>The emoji expresses the emotions of:</p>%0A        </div>,The sender of the message.,NULL,2191
1732460918,cf1a953dffd2eac7a8e2c5a7c5b51660,Question,97,0,Filler,110,<div style='padding-left:200px'>%0A          <img src='https://osf.io/download/5qgsc/' style='width:500px; height:auto; margin:50px 200px'><br><br>%0A        </div>%0A        <div>%0A          <p>The verb expresses the emotions of:</p>%0A        </div>,The sender of the message.,NULL,2052
1732460918,cf1a953dffd2eac7a8e2c5a7c5b51660,Question,81,0,Pos_Final,19,<div style='padding-left:200px'>%0A          <img src='https://osf.io/download/89xer/' style='width:500px; height:auto; margin:50px 200px'><br><br>%0A        </div>%0A        <div>%0A          <p>The emoji expresses the emotions of:</p>%0A        </div>,The sender of the message.,NULL,2948
1732460918,cf1a953dffd2eac7a8e2c5a7c5b51660,Question,106,0,Filler,119,<div style='padding-left:200px'>%0A          <img src='https://osf.io/download/qbz7d/' style='width:500px; height:auto; margin:50px 200px'><br><br>%0A        </div>%0A        <div>%0A          <p>The verb expresses the emotions of:</p>%0A        </div>,Frank.,NULL,8076
1732460918,cf1a953dffd2eac7a8e2c5a7c5b51660,Question,11,0,Neg_Final,1,<div style='padding-left:200px'>%0A          <img src='https://osf.io/download/wsh3q/' style='width:500px; height:auto; margin:50px 200px'><br><br>%0A        </div>%0A        <div>%0A          <p>The emoji expresses the emotions of:</p>%0A        </div>,The sender of the message.,NULL,366
1732460918,cf1a953dffd2eac7a8e2c5a7c5b51660,Question,105,0,Filler,118,<div style='padding-left:200px'>%0A          <img src='https://osf.io/download/kwpc6/' style='width:500px; height:auto; margin:50px 200px'><br><br>%0A        </div>%0A        <div>%0A          <p>The verb expresses the emotions of:</p>%0A        </div>,The sender of the message.,NULL,134
1732460918,cf1a953dffd2eac7a8e2c5a7c5b51660,Question,76,0,Pos_Initial,18,<div style='padding-left:200px'>%0A          <img src='https://osf.io/download/47sme/' style='width:500px; height:auto; margin:50px 200px'><br><br>%0A        </div>%0A        <div>%0A          <p>The emoji expresses the emotions of:</p>%0A        </div>,The sender of the message.,NULL,129
1732460918,cf1a953dffd2eac7a8e2c5a7c5b51660,Question,92,0,Filler,105,<div style='padding-left:200px'>%0A          <img src='https://osf.io/download/d3h8v/' style='width:500px; height:auto; margin:50px 200px'><br><br>%0A        </div>%0A        <div>%0A          <p>The verb expresses the emotions of:</p>%0A        </div>,The sender of the message.,NULL,121
1732460918,cf1a953dffd2eac7a8e2c5a7c5b51660,Question,86,0,Neg_Initial,20,<div style='padding-left:200px'>%0A          <img src='https://osf.io/download/dnv29/' style='width:500px; height:auto; margin:50px 200px'><br><br>%0A        </div>%0A        <div>%0A          <p>The emoji expresses the emotions of:</p>%0A        </div>,The sender of the message.,NULL,127
1732460918,cf1a953dffd2eac7a8e2c5a7c5b51660,Question,96,0,Filler,109,<div style='padding-left:200px'>%0A          <img src='https://osf.io/download/hc2ug/' style='width:500px; height:auto; margin:50px 200px'><br><br>%0A        </div>%0A        <div>%0A          <p>The verb expresses the emotions of:</p>%0A        </div>,The sender of the message.,NULL,138
1732460918,cf1a953dffd2eac7a8e2c5a7c5b51660,Question,65,0,Pos_Final,15,<div style='padding-left:200px'>%0A          <img src='https://osf.io/download/rebhs/' style='width:500px; height:auto; margin:50px 200px'><br><br>%0A        </div>%0A        <div>%0A          <p>The emoji expresses the emotions of:</p>%0A        </div>,The sender of the message.,NULL,137
1732460918,cf1a953dffd2eac7a8e2c5a7c5b51660,Question,91,0,Filler,104,<div style='padding-left:200px'>%0A          <img src='https://osf.io/download/zsmq5/' style='width:500px; height:auto; margin:50px 200px'><br><br>%0A        </div>%0A        <div>%0A          <p>The verb expresses the emotions of:</p>%0A        </div>,The sender of the message.,NULL,147
1732460918,cf1a953dffd2eac7a8e2c5a7c5b51660,Question,43,0,Neg_Final,9,<div style='padding-left:200px'>%0A          <img src='https://osf.io/download/7su95/' style='width:500px; height:auto; margin:50px 200px'><br><br>%0A        </div>%0A        <div>%0A          <p>The emoji expresses the emotions of:</p>%0A        </div>,The sender of the message.,NULL,106
1732460918,cf1a953dffd2eac7a8e2c5a7c5b51660,Question,104,0,Filler,117,<div style='padding-left:200px'>%0A          <img src='https://osf.io/download/z4sp6/' style='width:500px; height:auto; margin:50px 200px'><br><br>%0A        </div>%0A        <div>%0A          <p>The verb expresses the emotions of:</p>%0A        </div>,The sender of the message.,NULL,135
1732460918,cf1a953dffd2eac7a8e2c5a7c5b51660,Question,28,0,Pos_Initial,6,<div style='padding-left:200px'>%0A          <img src='https://osf.io/download/zmdqe/' style='width:500px; height:auto; margin:50px 200px'><br><br>%0A        </div>%0A        <div>%0A          <p>The emoji expresses the emotions of:</p>%0A        </div>,The sender of the message.,NULL,136
1732460918,cf1a953dffd2eac7a8e2c5a7c5b51660,Question,89,0,Filler,102,<div style='padding-left:200px'>%0A          <img src='https://osf.io/download/ehw8n/' style='width:500px; height:auto; margin:50px 200px'><br><br>%0A        </div>%0A        <div>%0A          <p>The verb expresses the emotions of:</p>%0A        </div>,The sender of the message.,NULL,139
1732460918,cf1a953dffd2eac7a8e2c5a7c5b51660,Question,70,0,Neg_Initial,16,<div style='padding-left:200px'>%0A          <img src='https://osf.io/download/z7xcp/' style='width:500px; height:auto; margin:50px 200px'><br><br>%0A        </div>%0A        <div>%0A          <p>The emoji expresses the emotions of:</p>%0A        </div>,The sender of the message.,NULL,153
1732460918,cf1a953dffd2eac7a8e2c5a7c5b51660,Question,94,0,Filler,107,<div style='padding-left:200px'>%0A          <img src='https://osf.io/download/yn9z5/' style='width:500px; height:auto; margin:50px 200px'><br><br>%0A        </div>%0A        <div>%0A          <p>The verb expresses the emotions of:</p>%0A        </div>,The sender of the message.,NULL,137
1732460918,cf1a953dffd2eac7a8e2c5a7c5b51660,Question,49,0,Pos_Final,11,<div style='padding-left:200px'>%0A          <img src='https://osf.io/download/gsm2t/' style='width:500px; height:auto; margin:50px 200px'><br><br>%0A        </div>%0A        <div>%0A          <p>The emoji expresses the emotions of:</p>%0A        </div>,The sender of the message.,NULL,139
1732460918,cf1a953dffd2eac7a8e2c5a7c5b51660,Question,93,0,Filler,106,<div style='padding-left:200px'>%0A          <img src='https://osf.io/download/p7arf/' style='width:500px; height:auto; margin:50px 200px'><br><br>%0A        </div>%0A        <div>%0A          <p>The verb expresses the emotions of:</p>%0A        </div>,The sender of the message.,NULL,137
1732460918,cf1a953dffd2eac7a8e2c5a7c5b51660,Question,75,0,Neg_Final,17,<div style='padding-left:200px'>%0A          <img src='https://osf.io/download/63xgt/' style='width:500px; height:auto; margin:50px 200px'><br><br>%0A        </div>%0A        <div>%0A          <p>The emoji expresses the emotions of:</p>%0A        </div>,The sender of the message.,NULL,132
1732460918,cf1a953dffd2eac7a8e2c5a7c5b51660,Question,103,0,Filler,116,<div style='padding-left:200px'>%0A          <img src='https://osf.io/download/r82kz/' style='width:500px; height:auto; margin:50px 200px'><br><br>%0A        </div>%0A        <div>%0A          <p>The verb expresses the emotions of:</p>%0A        </div>,The sender of the message.,NULL,136
1732460918,cf1a953dffd2eac7a8e2c5a7c5b51660,Question,44,0,Pos_Initial,10,<div style='padding-left:200px'>%0A          <img src='https://osf.io/download/5ea39/' style='width:500px; height:auto; margin:50px 200px'><br><br>%0A        </div>%0A        <div>%0A          <p>The emoji expresses the emotions of:</p>%0A        </div>,The sender of the message.,NULL,147
1732460918,cf1a953dffd2eac7a8e2c5a7c5b51660,Question,99,0,Filler,112,<div style='padding-left:200px'>%0A          <img src='https://osf.io/download/eac4w/' style='width:500px; height:auto; margin:50px 200px'><br><br>%0A        </div>%0A        <div>%0A          <p>The verb expresses the emotions of:</p>%0A        </div>,The sender of the message.,NULL,125
1732460918,cf1a953dffd2eac7a8e2c5a7c5b51660,Question,22,0,Neg_Initial,4,<div style='padding-left:200px'>%0A          <img src='https://osf.io/download/4m8tn/' style='width:500px; height:auto; margin:50px 200px'><br><br>%0A        </div>%0A        <div>%0A          <p>The emoji expresses the emotions of:</p>%0A        </div>,The sender of the message.,NULL,137
1732460918,cf1a953dffd2eac7a8e2c5a7c5b51660,Question,101,0,Filler,114,<div style='padding-left:200px'>%0A          <img src='https://osf.io/download/xe6tp/' style='width:500px; height:auto; margin:50px 200px'><br><br>%0A        </div>%0A        <div>%0A          <p>The verb expresses the emotions of:</p>%0A        </div>,The sender of the message.,NULL,147
1732460918,cf1a953dffd2eac7a8e2c5a7c5b51660,Question,17,0,Pos_Final,3,<div style='padding-left:200px'>%0A          <img src='https://osf.io/download/rb7n5/' style='width:500px; height:auto; margin:50px 200px'><br><br>%0A        </div>%0A        <div>%0A          <p>The emoji expresses the emotions of:</p>%0A        </div>,The sender of the message.,NULL,144
1732460918,cf1a953dffd2eac7a8e2c5a7c5b51660,Question,98,0,Filler,111,<div style='padding-left:200px'>%0A          <img src='https://osf.io/download/pmb4q/' style='width:500px; height:auto; margin:50px 200px'><br><br>%0A        </div>%0A        <div>%0A          <p>The verb expresses the emotions of:</p>%0A        </div>,The sender of the message.,NULL,144
1732460918,cf1a953dffd2eac7a8e2c5a7c5b51660,Question,27,0,Neg_Final,5,<div style='padding-left:200px'>%0A          <img src='https://osf.io/download/jmyt9/' style='width:500px; height:auto; margin:50px 200px'><br><br>%0A        </div>%0A        <div>%0A          <p>The emoji expresses the emotions of:</p>%0A        </div>,The sender of the message.,NULL,148
1732460918,cf1a953dffd2eac7a8e2c5a7c5b51660,Question,88,0,Filler,101,<div style='padding-left:200px'>%0A          <img src='https://osf.io/download/nzmy4/' style='width:500px; height:auto; margin:50px 200px'><br><br>%0A        </div>%0A        <div>%0A          <p>The verb expresses the emotions of:</p>%0A        </div>,The sender of the message.,NULL,134
1732460918,cf1a953dffd2eac7a8e2c5a7c5b51660,Question,60,0,Pos_Initial,14,<div style='padding-left:200px'>%0A          <img src='https://osf.io/download/bmdex/' style='width:500px; height:auto; margin:50px 200px'><br><br>%0A        </div>%0A        <div>%0A          <p>The emoji expresses the emotions of:</p>%0A        </div>,The sender of the message.,NULL,137
