#
# Results on Friday November 22 2024 10:36:51 UTC.
# USER AGENT: Mozilla/5.0 (Macintosh; Intel Mac OS X 10.15; rv:127.0) Gecko/20100101 Firefox/127.0
# Design number was non-random = 0
#
# Columns below this comment are as follows:
# 1. Time results were received.
# 2. MD5 hash that hopefully uniquely identifies participant.
# 3. Controller name.
# 4. Item number.
# 5. Element number.
# 6. Type.
# 7. Group.
# 8. PennElementType.
# 9. PennElementName.
# 10. Parameter.
# 11. Value.
# 12. EventTime.
# 13. Comments.
1732271812,56a69c5149bc1ef58f9ab8d169bc0d67,PennController,2,0,Intro1,NULL,PennController,2,_Trial_,Start,1732271957866,NULL
1732271812,56a69c5149bc1ef58f9ab8d169bc0d67,PennController,2,0,Intro1,NULL,PennController,2,_Trial_,End,1732271961740,NULL
1732271812,56a69c5149bc1ef58f9ab8d169bc0d67,PennController,0,0,TrainE,NULL,PennController,0,_Trial_,Start,1732271963363,NULL
1732271812,56a69c5149bc1ef58f9ab8d169bc0d67,PennController,0,0,TrainE,NULL,PennController,0,_Trial_,End,1732271965397,NULL
# Columns below this comment are as follows:
# 1. Time results were received.
# 2. MD5 hash that hopefully uniquely identifies participant.
# 3. Controller name.
# 4. Item number.
# 5. Element number.
# 6. Type.
# 7. Group.
# 8. Question (NULL if none).
# 9. Answer.
# 10. Whether or not answer was correct (NULL if N/A).
# 11. Time taken to answer.
1732271812,56a69c5149bc1ef58f9ab8d169bc0d67,Question,44,0,Pos_Final,10,<div>%0A          <img src='https://osf.io/download/kw4re/' style='width:300px; height:auto;'><br>%0A          <p>Jak myślisz%2C komu odpowiada ten emotikon?</p>%0A        </div>,Marka.,NULL,6302
1732271812,56a69c5149bc1ef58f9ab8d169bc0d67,Question,87,0,Filler,101,<div>%0A          <img src='https://osf.io/download/ydgqk/' style='width:300px; height:auto;'><br>%0A          <p>Jak myślisz%2C do kogo odnosi się ten czasownik?</p>%0A        </div>,Ludwikowi.,NULL,5407
1732271812,56a69c5149bc1ef58f9ab8d169bc0d67,Question,103,0,Filler,117,<div>%0A          <img src='https://osf.io/download/jt2zc/' style='width:300px; height:auto;'><br>%0A          <p>Jak myślisz%2C do kogo odnosi się ten czasownik?</p>%0A        </div>,Jowita.,NULL,6105
#
# Results on Friday November 22 2024 10:37:03 UTC.
# USER AGENT: Mozilla/5.0 (Macintosh; Intel Mac OS X 10.15; rv:127.0) Gecko/20100101 Firefox/127.0
# Design number was non-random = 0
#
# Columns below this comment are as follows:
# 1. Time results were received.
# 2. MD5 hash that hopefully uniquely identifies participant.
# 3. Controller name.
# 4. Item number.
# 5. Element number.
# 6. Type.
# 7. Group.
# 8. PennElementType.
# 9. PennElementName.
# 10. Parameter.
# 11. Value.
# 12. EventTime.
# 13. Comments.
1732271824,56a69c5149bc1ef58f9ab8d169bc0d67,PennController,2,0,Intro1,NULL,PennController,2,_Trial_,Start,1732271957866,NULL
1732271824,56a69c5149bc1ef58f9ab8d169bc0d67,PennController,2,0,Intro1,NULL,PennController,2,_Trial_,End,1732271961740,NULL
1732271824,56a69c5149bc1ef58f9ab8d169bc0d67,PennController,0,0,TrainE,NULL,PennController,0,_Trial_,Start,1732271963363,NULL
1732271824,56a69c5149bc1ef58f9ab8d169bc0d67,PennController,0,0,TrainE,NULL,PennController,0,_Trial_,End,1732271965397,NULL
# Columns below this comment are as follows:
# 1. Time results were received.
# 2. MD5 hash that hopefully uniquely identifies participant.
# 3. Controller name.
# 4. Item number.
# 5. Element number.
# 6. Type.
# 7. Group.
# 8. Question (NULL if none).
# 9. Answer.
# 10. Whether or not answer was correct (NULL if N/A).
# 11. Time taken to answer.
1732271824,56a69c5149bc1ef58f9ab8d169bc0d67,Question,44,0,Pos_Final,10,<div>%0A          <img src='https://osf.io/download/kw4re/' style='width:300px; height:auto;'><br>%0A          <p>Jak myślisz%2C komu odpowiada ten emotikon?</p>%0A        </div>,Marka.,NULL,6302
1732271824,56a69c5149bc1ef58f9ab8d169bc0d67,Question,87,0,Filler,101,<div>%0A          <img src='https://osf.io/download/ydgqk/' style='width:300px; height:auto;'><br>%0A          <p>Jak myślisz%2C do kogo odnosi się ten czasownik?</p>%0A        </div>,Ludwikowi.,NULL,5407
1732271824,56a69c5149bc1ef58f9ab8d169bc0d67,Question,103,0,Filler,117,<div>%0A          <img src='https://osf.io/download/jt2zc/' style='width:300px; height:auto;'><br>%0A          <p>Jak myślisz%2C do kogo odnosi się ten czasownik?</p>%0A        </div>,Jowita.,NULL,6105
# Columns below this comment are as follows:
# 1. Time results were received.
# 2. MD5 hash that hopefully uniquely identifies participant.
# 3. Controller name.
# 4. Item number.
# 5. Element number.
# 6. Type.
# 7. Group.
# 8. PennElementType.
# 9. PennElementName.
# 10. Parameter.
# 11. Value.
# 12. EventTime.
# 13. Comments.
1732271824,56a69c5149bc1ef58f9ab8d169bc0d67,PennController,1,0,Outro,NULL,PennController,1,_Trial_,Start,1732271989363,NULL
1732271824,56a69c5149bc1ef58f9ab8d169bc0d67,PennController,1,0,Outro,NULL,DropDown,gender,Selected,Mężczyzna,1732271991555,1
1732271824,56a69c5149bc1ef58f9ab8d169bc0d67,PennController,1,0,Outro,NULL,DropDown,emoji-use,Selected,Codziennie,1732271993940,0
1732271824,56a69c5149bc1ef58f9ab8d169bc0d67,PennController,1,0,Outro,NULL,DropDown,emoji-rec,Selected,Czasami,1732271995915,1
1732271824,56a69c5149bc1ef58f9ab8d169bc0d67,PennController,1,0,Outro,NULL,DropDown,age,Selected,40-49,1732271999265,2
1732271824,56a69c5149bc1ef58f9ab8d169bc0d67,PennController,1,0,Outro,NULL,PennController,1,_Trial_,End,1732272000842,NULL
#
# Results on Friday November 22 2024 13:28:21 UTC.
# USER AGENT: Mozilla/5.0 (X11; Linux x86_64; rv:129.0) Gecko/20100101 Firefox/129.0
# Design number was non-random = 2
#
# Columns below this comment are as follows:
# 1. Time results were received.
# 2. MD5 hash that hopefully uniquely identifies participant.
# 3. Controller name.
# 4. Item number.
# 5. Element number.
# 6. Type.
# 7. Group.
# 8. Field name.
# 9. Field value.
1732282101,d41b49df86d07998af2b12581c99e7ad,Form,5,0,intro,NULL,consent,yes
1732282101,d41b49df86d07998af2b12581c99e7ad,Form,5,0,intro,NULL,_REACTION_TIME_,18874
# Columns below this comment are as follows:
# 1. Time results were received.
# 2. MD5 hash that hopefully uniquely identifies participant.
# 3. Controller name.
# 4. Item number.
# 5. Element number.
# 6. Type.
# 7. Group.
# 8. PennElementType.
# 9. PennElementName.
# 10. Parameter.
# 11. Value.
# 12. EventTime.
# 13. Comments.
1732282101,d41b49df86d07998af2b12581c99e7ad,PennController,2,0,Intro1,NULL,PennController,2,_Trial_,Start,1732281841577,NULL
1732282101,d41b49df86d07998af2b12581c99e7ad,PennController,2,0,Intro1,NULL,PennController,2,_Trial_,End,1732281849470,NULL
# The lines below this comment are in groups of 2.
# The formats of the lines in each of these groups are as follows:
#
# Line 1:
#     Col. 1: Time results were received.
#     Col. 2: MD5 hash that hopefully uniquely identifies participant.
#     Col. 3: Controller name.
#     Col. 4: Item number.
#     Col. 5: Element number.
#     Col. 6: Type.
#     Col. 7: Group.
#     Col. 8: Question (NULL if none).
#     Col. 9: Answer.
#     Col. 10: Whether or not answer was correct (NULL if N/A).
#     Col. 11: Time taken to answer.
# Line 2:
#     Col. 1: Time results were received.
#     Col. 2: MD5 hash that hopefully uniquely identifies participant.
#     Col. 3: Controller name.
#     Col. 4: Item number.
#     Col. 5: Element number.
#     Col. 6: Type.
#     Col. 7: Group.
#     Col. 8: PennElementType.
#     Col. 9: PennElementName.
#     Col. 10: Parameter.
#     Col. 11: Value.
#     Col. 12: EventTime.
#     Col. 13: Comments.
1732282101,d41b49df86d07998af2b12581c99e7ad,Question,6,0,practice,201,Send me some practice items and I will put here...,Makes sense.,NULL,8115
1732282101,d41b49df86d07998af2b12581c99e7ad,PennController,0,0,TrainE,NULL,PennController,0,_Trial_,Start,1732281857621,NULL
# The lines below this comment are in groups of 2.
# The formats of the lines in each of these groups are as follows:
#
# Line 1:
#     Col. 1: Time results were received.
#     Col. 2: MD5 hash that hopefully uniquely identifies participant.
#     Col. 3: Controller name.
#     Col. 4: Item number.
#     Col. 5: Element number.
#     Col. 6: Type.
#     Col. 7: Group.
#     Col. 8: PennElementType.
#     Col. 9: PennElementName.
#     Col. 10: Parameter.
#     Col. 11: Value.
#     Col. 12: EventTime.
#     Col. 13: Comments.
# Line 2:
#     Col. 1: Time results were received.
#     Col. 2: MD5 hash that hopefully uniquely identifies participant.
#     Col. 3: Controller name.
#     Col. 4: Item number.
#     Col. 5: Element number.
#     Col. 6: Type.
#     Col. 7: Group.
#     Col. 8: Question (NULL if none).
#     Col. 9: Answer.
#     Col. 10: Whether or not answer was correct (NULL if N/A).
#     Col. 11: Time taken to answer.
1732282101,d41b49df86d07998af2b12581c99e7ad,PennController,0,0,TrainE,NULL,PennController,0,_Trial_,End,1732281859633,NULL
1732282101,d41b49df86d07998af2b12581c99e7ad,Question,105,0,Filler,119,<div>%0A          <img src='https://osf.io/download/7m98j/' style='width:300px; height:auto;'><br>%0A          <p>Jak myślisz%2C do kogo odnosi się ten czasownik?</p>%0A        </div>,Nadawcy wiadomości.,NULL,6216
# Columns below this comment are as follows:
# 1. Time results were received.
# 2. MD5 hash that hopefully uniquely identifies participant.
# 3. Controller name.
# 4. Item number.
# 5. Element number.
# 6. Type.
# 7. Group.
# 8. Question (NULL if none).
# 9. Answer.
# 10. Whether or not answer was correct (NULL if N/A).
# 11. Time taken to answer.
1732282101,d41b49df86d07998af2b12581c99e7ad,Question,84,0,Pos_Final,20,<div>%0A          <img src='https://osf.io/download/awhqf/' style='width:300px; height:auto;'><br>%0A          <p>Jak myślisz%2C komu odpowiada ten emotikon?</p>%0A        </div>,Nadawcy wiadomości.,NULL,30371
1732282101,d41b49df86d07998af2b12581c99e7ad,Question,87,0,Filler,101,<div>%0A          <img src='https://osf.io/download/ydgqk/' style='width:300px; height:auto;'><br>%0A          <p>Jak myślisz%2C do kogo odnosi się ten czasownik?</p>%0A        </div>,Nadawcy wiadomości.,NULL,24130
1732282101,d41b49df86d07998af2b12581c99e7ad,Question,79,0,Pos_Initial,19,<div>%0A          <img src='https://osf.io/download/r7keh/' style='width:300px; height:auto;'><br>%0A          <p>Jak myślisz%2C komu odpowiada ten emotikon?</p>%0A        </div>,Nadawcy wiadomości.,NULL,4549
1732282101,d41b49df86d07998af2b12581c99e7ad,Question,94,0,Filler,108,<div>%0A          <img src='https://osf.io/download/hg5bj/' style='width:300px; height:auto;'><br>%0A          <p>Jak myślisz%2C do kogo odnosi się ten czasownik?</p>%0A        </div>,Nadawcy wiadomości.,NULL,5936
1732282101,d41b49df86d07998af2b12581c99e7ad,Question,62,0,Neg_Final,14,<div>%0A          <img src='https://osf.io/download/ne94q/' style='width:300px; height:auto;'><br>%0A          <p>Jak myślisz%2C komu odpowiada ten emotikon?</p>%0A        </div>,Nadawcy wiadomości.,NULL,7787
1732282101,d41b49df86d07998af2b12581c99e7ad,Question,93,0,Filler,107,<div>%0A          <img src='https://osf.io/download/gj8ub/' style='width:300px; height:auto;'><br>%0A          <p>Jak myślisz%2C do kogo odnosi się ten czasownik?</p>%0A        </div>,Nadawcy wiadomości.,NULL,4781
1732282101,d41b49df86d07998af2b12581c99e7ad,Question,9,0,Neg_Initial,1,<div>%0A          <img src='https://osf.io/download/wr5m9/' style='width:300px; height:auto;'><br>%0A          <p>Jak myślisz%2C komu odpowiada ten emotikon?</p>%0A        </div>,Kasia.,NULL,38016
1732282101,d41b49df86d07998af2b12581c99e7ad,Question,104,0,Filler,118,<div>%0A          <img src='https://osf.io/download/zh4vq/' style='width:300px; height:auto;'><br>%0A          <p>Jak myślisz%2C do kogo odnosi się ten czasownik?</p>%0A        </div>,Nadawcy wiadomości.,NULL,9703
1732282101,d41b49df86d07998af2b12581c99e7ad,Question,36,0,Pos_Final,8,<div>%0A          <img src='https://osf.io/download/s2vq7/' style='width:300px; height:auto;'><br>%0A          <p>Jak myślisz%2C komu odpowiada ten emotikon?</p>%0A        </div>,Michał.,NULL,3189
1732282101,d41b49df86d07998af2b12581c99e7ad,Question,88,0,Filler,102,<div>%0A          <img src='https://osf.io/download/7a8b6/' style='width:300px; height:auto;'><br>%0A          <p>Jak myślisz%2C do kogo odnosi się ten czasownik?</p>%0A        </div>,Kinga.,NULL,34453
1732282101,d41b49df86d07998af2b12581c99e7ad,Question,15,0,Pos_Initial,3,<div>%0A          <img src='https://osf.io/download/tvzpc/' style='width:300px; height:auto;'><br>%0A          <p>Jak myślisz%2C komu odpowiada ten emotikon?</p>%0A        </div>,Laura.,NULL,234601
1732282101,d41b49df86d07998af2b12581c99e7ad,Question,90,0,Filler,104,<div>%0A          <img src='https://osf.io/download/dz7nj/' style='width:300px; height:auto;'><br>%0A          <p>Jak myślisz%2C do kogo odnosi się ten czasownik?</p>%0A        </div>,Julian.,NULL,2912
1732282101,d41b49df86d07998af2b12581c99e7ad,Question,30,0,Neg_Final,6,<div>%0A          <img src='https://osf.io/download/k8nje/' style='width:300px; height:auto;'><br>%0A          <p>Jak myślisz%2C komu odpowiada ten emotikon?</p>%0A        </div>,Daniel.,NULL,4809
1732282101,d41b49df86d07998af2b12581c99e7ad,Question,97,0,Filler,111,<div>%0A          <img src='https://osf.io/download/pw7z2/' style='width:300px; height:auto;'><br>%0A          <p>Jak myślisz%2C do kogo odnosi się ten czasownik?</p>%0A        </div>,Krystianowi.,NULL,1197
1732282101,d41b49df86d07998af2b12581c99e7ad,Question,41,0,Neg_Initial,9,<div>%0A          <img src='https://osf.io/download/cnhpf/' style='width:300px; height:auto;'><br>%0A          <p>Jak myślisz%2C komu odpowiada ten emotikon?</p>%0A        </div>,Tomkowi.,NULL,607
1732282101,d41b49df86d07998af2b12581c99e7ad,Question,91,0,Filler,105,<div>%0A          <img src='https://osf.io/download/9vc6u/' style='width:300px; height:auto;'><br>%0A          <p>Jak myślisz%2C do kogo odnosi się ten czasownik?</p>%0A        </div>,Maćka.,NULL,308
1732282101,d41b49df86d07998af2b12581c99e7ad,Question,52,0,Pos_Final,12,<div>%0A          <img src='https://osf.io/download/wpx9e/' style='width:300px; height:auto;'><br>%0A          <p>Jak myślisz%2C komu odpowiada ten emotikon?</p>%0A        </div>,Wiktora.,NULL,158
1732282101,d41b49df86d07998af2b12581c99e7ad,Question,102,0,Filler,116,<div>%0A          <img src='https://osf.io/download/m9fhk/' style='width:300px; height:auto;'><br>%0A          <p>Jak myślisz%2C do kogo odnosi się ten czasownik?</p>%0A        </div>,Uli.,NULL,170
1732282101,d41b49df86d07998af2b12581c99e7ad,Question,31,0,Pos_Initial,7,<div>%0A          <img src='https://osf.io/download/68z7b/' style='width:300px; height:auto;'><br>%0A          <p>Jak myślisz%2C komu odpowiada ten emotikon?</p>%0A        </div>,Olka.,NULL,206
1732282101,d41b49df86d07998af2b12581c99e7ad,Question,95,0,Filler,109,<div>%0A          <img src='https://osf.io/download/nrvxq/' style='width:300px; height:auto;'><br>%0A          <p>Jak myślisz%2C do kogo odnosi się ten czasownik?</p>%0A        </div>,Igora.,NULL,157
1732282101,d41b49df86d07998af2b12581c99e7ad,Question,78,0,Neg_Final,18,<div>%0A          <img src='https://osf.io/download/qpt82/' style='width:300px; height:auto;'><br>%0A          <p>Jak myślisz%2C komu odpowiada ten emotikon?</p>%0A        </div>,Wiktorię.,NULL,166
1732282101,d41b49df86d07998af2b12581c99e7ad,Question,99,0,Filler,113,<div>%0A          <img src='https://osf.io/download/kpx29/' style='width:300px; height:auto;'><br>%0A          <p>Jak myślisz%2C do kogo odnosi się ten czasownik?</p>%0A        </div>,Adriana.,NULL,180
1732282101,d41b49df86d07998af2b12581c99e7ad,Question,57,0,Neg_Initial,13,<div>%0A          <img src='https://osf.io/download/knpem/' style='width:300px; height:auto;'><br>%0A          <p>Jak myślisz%2C komu odpowiada ten emotikon?</p>%0A        </div>,Mateusza.,NULL,161
1732282101,d41b49df86d07998af2b12581c99e7ad,Question,96,0,Filler,110,<div>%0A          <img src='https://osf.io/download/6ad9p/' style='width:300px; height:auto;'><br>%0A          <p>Jak myślisz%2C do kogo odnosi się ten czasownik?</p>%0A        </div>,Olę.,NULL,299
1732282101,d41b49df86d07998af2b12581c99e7ad,Question,68,0,Pos_Final,16,<div>%0A          <img src='https://osf.io/download/t4735/' style='width:300px; height:auto;'><br>%0A          <p>Jak myślisz%2C komu odpowiada ten emotikon?</p>%0A        </div>,Weronikę.,NULL,254
1732282101,d41b49df86d07998af2b12581c99e7ad,Question,106,0,Filler,120,<div>%0A          <img src='https://osf.io/download/ec6qy/' style='width:300px; height:auto;'><br>%0A          <p>Jak myślisz%2C do kogo odnosi się ten czasownik?</p>%0A        </div>,Izy.,NULL,165
1732282101,d41b49df86d07998af2b12581c99e7ad,Question,63,0,Pos_Initial,15,<div>%0A          <img src='https://osf.io/download/6zy52/' style='width:300px; height:auto;'><br>%0A          <p>Jak myślisz%2C komu odpowiada ten emotikon?</p>%0A        </div>,Grzesia.,NULL,390
1732282101,d41b49df86d07998af2b12581c99e7ad,Question,101,0,Filler,115,<div>%0A          <img src='https://osf.io/download/mp3xt/' style='width:300px; height:auto;'><br>%0A          <p>Jak myślisz%2C do kogo odnosi się ten czasownik?</p>%0A        </div>,Konrada.,NULL,182
1732282101,d41b49df86d07998af2b12581c99e7ad,Question,14,0,Neg_Final,2,<div>%0A          <img src='https://osf.io/download/twfv2/' style='width:300px; height:auto;'><br>%0A          <p>Jak myślisz%2C komu odpowiada ten emotikon?</p>%0A        </div>,Oliwię.,NULL,178
1732282101,d41b49df86d07998af2b12581c99e7ad,Question,92,0,Filler,106,<div>%0A          <img src='https://osf.io/download/w94eu/' style='width:300px; height:auto;'><br>%0A          <p>Jak myślisz%2C do kogo odnosi się ten czasownik?</p>%0A        </div>,Basię.,NULL,147
1732282101,d41b49df86d07998af2b12581c99e7ad,Question,73,0,Neg_Initial,17,<div>%0A          <img src='https://osf.io/download/8f7dz/' style='width:300px; height:auto;'><br>%0A          <p>Jak myślisz%2C komu odpowiada ten emotikon?</p>%0A        </div>,Paulinie.,NULL,140
1732282101,d41b49df86d07998af2b12581c99e7ad,Question,103,0,Filler,117,<div>%0A          <img src='https://osf.io/download/jt2zc/' style='width:300px; height:auto;'><br>%0A          <p>Jak myślisz%2C do kogo odnosi się ten czasownik?</p>%0A        </div>,Leszka.,NULL,159
1732282101,d41b49df86d07998af2b12581c99e7ad,Question,20,0,Pos_Final,4,<div>%0A          <img src='https://osf.io/download/rj8hb/' style='width:300px; height:auto;'><br>%0A          <p>Jak myślisz%2C komu odpowiada ten emotikon?</p>%0A        </div>,Anię.,NULL,166
1732282101,d41b49df86d07998af2b12581c99e7ad,Question,100,0,Filler,114,<div>%0A          <img src='https://osf.io/download/zmrg7/' style='width:300px; height:auto;'><br>%0A          <p>Jak myślisz%2C do kogo odnosi się ten czasownik?</p>%0A        </div>,Amelki.,NULL,168
1732282101,d41b49df86d07998af2b12581c99e7ad,Question,47,0,Pos_Initial,11,<div>%0A          <img src='https://osf.io/download/syhq2/' style='width:300px; height:auto;'><br>%0A          <p>Jak myślisz%2C komu odpowiada ten emotikon?</p>%0A        </div>,Jana.,NULL,167
1732282101,d41b49df86d07998af2b12581c99e7ad,Question,89,0,Filler,103,<div>%0A          <img src='https://osf.io/download/2jqgu/' style='width:300px; height:auto;'><br>%0A          <p>Jak myślisz%2C do kogo odnosi się ten czasownik?</p>%0A        </div>,Emila.,NULL,215
1732282101,d41b49df86d07998af2b12581c99e7ad,Question,46,0,Neg_Final,10,<div>%0A          <img src='https://osf.io/download/39m6k/' style='width:300px; height:auto;'><br>%0A          <p>Jak myślisz%2C komu odpowiada ten emotikon?</p>%0A        </div>,Marka.,NULL,171
1732282101,d41b49df86d07998af2b12581c99e7ad,Question,98,0,Filler,112,<div>%0A          <img src='https://osf.io/download/ju84a/' style='width:300px; height:auto;'><br>%0A          <p>Jak myślisz%2C do kogo odnosi się ten czasownik?</p>%0A        </div>,Danusi.,NULL,408
1732282101,d41b49df86d07998af2b12581c99e7ad,Question,25,0,Neg_Initial,5,<div>%0A          <img src='https://osf.io/download/zjwuq/' style='width:300px; height:auto;'><br>%0A          <p>Jak myślisz%2C komu odpowiada ten emotikon?</p>%0A        </div>,Karolinę.,NULL,409
#
# Results on Friday November 22 2024 13:28:43 UTC.
# USER AGENT: Mozilla/5.0 (X11; Linux x86_64; rv:129.0) Gecko/20100101 Firefox/129.0
# Design number was non-random = 2
#
# Columns below this comment are as follows:
# 1. Time results were received.
# 2. MD5 hash that hopefully uniquely identifies participant.
# 3. Controller name.
# 4. Item number.
# 5. Element number.
# 6. Type.
# 7. Group.
# 8. Field name.
# 9. Field value.
1732282123,d41b49df86d07998af2b12581c99e7ad,Form,5,0,intro,NULL,consent,yes
1732282123,d41b49df86d07998af2b12581c99e7ad,Form,5,0,intro,NULL,_REACTION_TIME_,18874
# Columns below this comment are as follows:
# 1. Time results were received.
# 2. MD5 hash that hopefully uniquely identifies participant.
# 3. Controller name.
# 4. Item number.
# 5. Element number.
# 6. Type.
# 7. Group.
# 8. PennElementType.
# 9. PennElementName.
# 10. Parameter.
# 11. Value.
# 12. EventTime.
# 13. Comments.
1732282123,d41b49df86d07998af2b12581c99e7ad,PennController,2,0,Intro1,NULL,PennController,2,_Trial_,Start,1732281841577,NULL
1732282123,d41b49df86d07998af2b12581c99e7ad,PennController,2,0,Intro1,NULL,PennController,2,_Trial_,End,1732281849470,NULL
# The lines below this comment are in groups of 2.
# The formats of the lines in each of these groups are as follows:
#
# Line 1:
#     Col. 1: Time results were received.
#     Col. 2: MD5 hash that hopefully uniquely identifies participant.
#     Col. 3: Controller name.
#     Col. 4: Item number.
#     Col. 5: Element number.
#     Col. 6: Type.
#     Col. 7: Group.
#     Col. 8: Question (NULL if none).
#     Col. 9: Answer.
#     Col. 10: Whether or not answer was correct (NULL if N/A).
#     Col. 11: Time taken to answer.
# Line 2:
#     Col. 1: Time results were received.
#     Col. 2: MD5 hash that hopefully uniquely identifies participant.
#     Col. 3: Controller name.
#     Col. 4: Item number.
#     Col. 5: Element number.
#     Col. 6: Type.
#     Col. 7: Group.
#     Col. 8: PennElementType.
#     Col. 9: PennElementName.
#     Col. 10: Parameter.
#     Col. 11: Value.
#     Col. 12: EventTime.
#     Col. 13: Comments.
1732282123,d41b49df86d07998af2b12581c99e7ad,Question,6,0,practice,201,Send me some practice items and I will put here...,Makes sense.,NULL,8115
1732282123,d41b49df86d07998af2b12581c99e7ad,PennController,0,0,TrainE,NULL,PennController,0,_Trial_,Start,1732281857621,NULL
# The lines below this comment are in groups of 2.
# The formats of the lines in each of these groups are as follows:
#
# Line 1:
#     Col. 1: Time results were received.
#     Col. 2: MD5 hash that hopefully uniquely identifies participant.
#     Col. 3: Controller name.
#     Col. 4: Item number.
#     Col. 5: Element number.
#     Col. 6: Type.
#     Col. 7: Group.
#     Col. 8: PennElementType.
#     Col. 9: PennElementName.
#     Col. 10: Parameter.
#     Col. 11: Value.
#     Col. 12: EventTime.
#     Col. 13: Comments.
# Line 2:
#     Col. 1: Time results were received.
#     Col. 2: MD5 hash that hopefully uniquely identifies participant.
#     Col. 3: Controller name.
#     Col. 4: Item number.
#     Col. 5: Element number.
#     Col. 6: Type.
#     Col. 7: Group.
#     Col. 8: Question (NULL if none).
#     Col. 9: Answer.
#     Col. 10: Whether or not answer was correct (NULL if N/A).
#     Col. 11: Time taken to answer.
1732282123,d41b49df86d07998af2b12581c99e7ad,PennController,0,0,TrainE,NULL,PennController,0,_Trial_,End,1732281859633,NULL
1732282123,d41b49df86d07998af2b12581c99e7ad,Question,105,0,Filler,119,<div>%0A          <img src='https://osf.io/download/7m98j/' style='width:300px; height:auto;'><br>%0A          <p>Jak myślisz%2C do kogo odnosi się ten czasownik?</p>%0A        </div>,Nadawcy wiadomości.,NULL,6216
# Columns below this comment are as follows:
# 1. Time results were received.
# 2. MD5 hash that hopefully uniquely identifies participant.
# 3. Controller name.
# 4. Item number.
# 5. Element number.
# 6. Type.
# 7. Group.
# 8. Question (NULL if none).
# 9. Answer.
# 10. Whether or not answer was correct (NULL if N/A).
# 11. Time taken to answer.
1732282123,d41b49df86d07998af2b12581c99e7ad,Question,84,0,Pos_Final,20,<div>%0A          <img src='https://osf.io/download/awhqf/' style='width:300px; height:auto;'><br>%0A          <p>Jak myślisz%2C komu odpowiada ten emotikon?</p>%0A        </div>,Nadawcy wiadomości.,NULL,30371
1732282123,d41b49df86d07998af2b12581c99e7ad,Question,87,0,Filler,101,<div>%0A          <img src='https://osf.io/download/ydgqk/' style='width:300px; height:auto;'><br>%0A          <p>Jak myślisz%2C do kogo odnosi się ten czasownik?</p>%0A        </div>,Nadawcy wiadomości.,NULL,24130
1732282123,d41b49df86d07998af2b12581c99e7ad,Question,79,0,Pos_Initial,19,<div>%0A          <img src='https://osf.io/download/r7keh/' style='width:300px; height:auto;'><br>%0A          <p>Jak myślisz%2C komu odpowiada ten emotikon?</p>%0A        </div>,Nadawcy wiadomości.,NULL,4549
1732282123,d41b49df86d07998af2b12581c99e7ad,Question,94,0,Filler,108,<div>%0A          <img src='https://osf.io/download/hg5bj/' style='width:300px; height:auto;'><br>%0A          <p>Jak myślisz%2C do kogo odnosi się ten czasownik?</p>%0A        </div>,Nadawcy wiadomości.,NULL,5936
1732282123,d41b49df86d07998af2b12581c99e7ad,Question,62,0,Neg_Final,14,<div>%0A          <img src='https://osf.io/download/ne94q/' style='width:300px; height:auto;'><br>%0A          <p>Jak myślisz%2C komu odpowiada ten emotikon?</p>%0A        </div>,Nadawcy wiadomości.,NULL,7787
1732282123,d41b49df86d07998af2b12581c99e7ad,Question,93,0,Filler,107,<div>%0A          <img src='https://osf.io/download/gj8ub/' style='width:300px; height:auto;'><br>%0A          <p>Jak myślisz%2C do kogo odnosi się ten czasownik?</p>%0A        </div>,Nadawcy wiadomości.,NULL,4781
1732282123,d41b49df86d07998af2b12581c99e7ad,Question,9,0,Neg_Initial,1,<div>%0A          <img src='https://osf.io/download/wr5m9/' style='width:300px; height:auto;'><br>%0A          <p>Jak myślisz%2C komu odpowiada ten emotikon?</p>%0A        </div>,Kasia.,NULL,38016
1732282123,d41b49df86d07998af2b12581c99e7ad,Question,104,0,Filler,118,<div>%0A          <img src='https://osf.io/download/zh4vq/' style='width:300px; height:auto;'><br>%0A          <p>Jak myślisz%2C do kogo odnosi się ten czasownik?</p>%0A        </div>,Nadawcy wiadomości.,NULL,9703
1732282123,d41b49df86d07998af2b12581c99e7ad,Question,36,0,Pos_Final,8,<div>%0A          <img src='https://osf.io/download/s2vq7/' style='width:300px; height:auto;'><br>%0A          <p>Jak myślisz%2C komu odpowiada ten emotikon?</p>%0A        </div>,Michał.,NULL,3189
1732282123,d41b49df86d07998af2b12581c99e7ad,Question,88,0,Filler,102,<div>%0A          <img src='https://osf.io/download/7a8b6/' style='width:300px; height:auto;'><br>%0A          <p>Jak myślisz%2C do kogo odnosi się ten czasownik?</p>%0A        </div>,Kinga.,NULL,34453
1732282123,d41b49df86d07998af2b12581c99e7ad,Question,15,0,Pos_Initial,3,<div>%0A          <img src='https://osf.io/download/tvzpc/' style='width:300px; height:auto;'><br>%0A          <p>Jak myślisz%2C komu odpowiada ten emotikon?</p>%0A        </div>,Laura.,NULL,234601
1732282123,d41b49df86d07998af2b12581c99e7ad,Question,90,0,Filler,104,<div>%0A          <img src='https://osf.io/download/dz7nj/' style='width:300px; height:auto;'><br>%0A          <p>Jak myślisz%2C do kogo odnosi się ten czasownik?</p>%0A        </div>,Julian.,NULL,2912
1732282123,d41b49df86d07998af2b12581c99e7ad,Question,30,0,Neg_Final,6,<div>%0A          <img src='https://osf.io/download/k8nje/' style='width:300px; height:auto;'><br>%0A          <p>Jak myślisz%2C komu odpowiada ten emotikon?</p>%0A        </div>,Daniel.,NULL,4809
1732282123,d41b49df86d07998af2b12581c99e7ad,Question,97,0,Filler,111,<div>%0A          <img src='https://osf.io/download/pw7z2/' style='width:300px; height:auto;'><br>%0A          <p>Jak myślisz%2C do kogo odnosi się ten czasownik?</p>%0A        </div>,Krystianowi.,NULL,1197
1732282123,d41b49df86d07998af2b12581c99e7ad,Question,41,0,Neg_Initial,9,<div>%0A          <img src='https://osf.io/download/cnhpf/' style='width:300px; height:auto;'><br>%0A          <p>Jak myślisz%2C komu odpowiada ten emotikon?</p>%0A        </div>,Tomkowi.,NULL,607
1732282123,d41b49df86d07998af2b12581c99e7ad,Question,91,0,Filler,105,<div>%0A          <img src='https://osf.io/download/9vc6u/' style='width:300px; height:auto;'><br>%0A          <p>Jak myślisz%2C do kogo odnosi się ten czasownik?</p>%0A        </div>,Maćka.,NULL,308
1732282123,d41b49df86d07998af2b12581c99e7ad,Question,52,0,Pos_Final,12,<div>%0A          <img src='https://osf.io/download/wpx9e/' style='width:300px; height:auto;'><br>%0A          <p>Jak myślisz%2C komu odpowiada ten emotikon?</p>%0A        </div>,Wiktora.,NULL,158
1732282123,d41b49df86d07998af2b12581c99e7ad,Question,102,0,Filler,116,<div>%0A          <img src='https://osf.io/download/m9fhk/' style='width:300px; height:auto;'><br>%0A          <p>Jak myślisz%2C do kogo odnosi się ten czasownik?</p>%0A        </div>,Uli.,NULL,170
1732282123,d41b49df86d07998af2b12581c99e7ad,Question,31,0,Pos_Initial,7,<div>%0A          <img src='https://osf.io/download/68z7b/' style='width:300px; height:auto;'><br>%0A          <p>Jak myślisz%2C komu odpowiada ten emotikon?</p>%0A        </div>,Olka.,NULL,206
1732282123,d41b49df86d07998af2b12581c99e7ad,Question,95,0,Filler,109,<div>%0A          <img src='https://osf.io/download/nrvxq/' style='width:300px; height:auto;'><br>%0A          <p>Jak myślisz%2C do kogo odnosi się ten czasownik?</p>%0A        </div>,Igora.,NULL,157
1732282123,d41b49df86d07998af2b12581c99e7ad,Question,78,0,Neg_Final,18,<div>%0A          <img src='https://osf.io/download/qpt82/' style='width:300px; height:auto;'><br>%0A          <p>Jak myślisz%2C komu odpowiada ten emotikon?</p>%0A        </div>,Wiktorię.,NULL,166
1732282123,d41b49df86d07998af2b12581c99e7ad,Question,99,0,Filler,113,<div>%0A          <img src='https://osf.io/download/kpx29/' style='width:300px; height:auto;'><br>%0A          <p>Jak myślisz%2C do kogo odnosi się ten czasownik?</p>%0A        </div>,Adriana.,NULL,180
1732282123,d41b49df86d07998af2b12581c99e7ad,Question,57,0,Neg_Initial,13,<div>%0A          <img src='https://osf.io/download/knpem/' style='width:300px; height:auto;'><br>%0A          <p>Jak myślisz%2C komu odpowiada ten emotikon?</p>%0A        </div>,Mateusza.,NULL,161
1732282123,d41b49df86d07998af2b12581c99e7ad,Question,96,0,Filler,110,<div>%0A          <img src='https://osf.io/download/6ad9p/' style='width:300px; height:auto;'><br>%0A          <p>Jak myślisz%2C do kogo odnosi się ten czasownik?</p>%0A        </div>,Olę.,NULL,299
1732282123,d41b49df86d07998af2b12581c99e7ad,Question,68,0,Pos_Final,16,<div>%0A          <img src='https://osf.io/download/t4735/' style='width:300px; height:auto;'><br>%0A          <p>Jak myślisz%2C komu odpowiada ten emotikon?</p>%0A        </div>,Weronikę.,NULL,254
1732282123,d41b49df86d07998af2b12581c99e7ad,Question,106,0,Filler,120,<div>%0A          <img src='https://osf.io/download/ec6qy/' style='width:300px; height:auto;'><br>%0A          <p>Jak myślisz%2C do kogo odnosi się ten czasownik?</p>%0A        </div>,Izy.,NULL,165
1732282123,d41b49df86d07998af2b12581c99e7ad,Question,63,0,Pos_Initial,15,<div>%0A          <img src='https://osf.io/download/6zy52/' style='width:300px; height:auto;'><br>%0A          <p>Jak myślisz%2C komu odpowiada ten emotikon?</p>%0A        </div>,Grzesia.,NULL,390
1732282123,d41b49df86d07998af2b12581c99e7ad,Question,101,0,Filler,115,<div>%0A          <img src='https://osf.io/download/mp3xt/' style='width:300px; height:auto;'><br>%0A          <p>Jak myślisz%2C do kogo odnosi się ten czasownik?</p>%0A        </div>,Konrada.,NULL,182
1732282123,d41b49df86d07998af2b12581c99e7ad,Question,14,0,Neg_Final,2,<div>%0A          <img src='https://osf.io/download/twfv2/' style='width:300px; height:auto;'><br>%0A          <p>Jak myślisz%2C komu odpowiada ten emotikon?</p>%0A        </div>,Oliwię.,NULL,178
1732282123,d41b49df86d07998af2b12581c99e7ad,Question,92,0,Filler,106,<div>%0A          <img src='https://osf.io/download/w94eu/' style='width:300px; height:auto;'><br>%0A          <p>Jak myślisz%2C do kogo odnosi się ten czasownik?</p>%0A        </div>,Basię.,NULL,147
1732282123,d41b49df86d07998af2b12581c99e7ad,Question,73,0,Neg_Initial,17,<div>%0A          <img src='https://osf.io/download/8f7dz/' style='width:300px; height:auto;'><br>%0A          <p>Jak myślisz%2C komu odpowiada ten emotikon?</p>%0A        </div>,Paulinie.,NULL,140
1732282123,d41b49df86d07998af2b12581c99e7ad,Question,103,0,Filler,117,<div>%0A          <img src='https://osf.io/download/jt2zc/' style='width:300px; height:auto;'><br>%0A          <p>Jak myślisz%2C do kogo odnosi się ten czasownik?</p>%0A        </div>,Leszka.,NULL,159
1732282123,d41b49df86d07998af2b12581c99e7ad,Question,20,0,Pos_Final,4,<div>%0A          <img src='https://osf.io/download/rj8hb/' style='width:300px; height:auto;'><br>%0A          <p>Jak myślisz%2C komu odpowiada ten emotikon?</p>%0A        </div>,Anię.,NULL,166
1732282123,d41b49df86d07998af2b12581c99e7ad,Question,100,0,Filler,114,<div>%0A          <img src='https://osf.io/download/zmrg7/' style='width:300px; height:auto;'><br>%0A          <p>Jak myślisz%2C do kogo odnosi się ten czasownik?</p>%0A        </div>,Amelki.,NULL,168
1732282123,d41b49df86d07998af2b12581c99e7ad,Question,47,0,Pos_Initial,11,<div>%0A          <img src='https://osf.io/download/syhq2/' style='width:300px; height:auto;'><br>%0A          <p>Jak myślisz%2C komu odpowiada ten emotikon?</p>%0A        </div>,Jana.,NULL,167
1732282123,d41b49df86d07998af2b12581c99e7ad,Question,89,0,Filler,103,<div>%0A          <img src='https://osf.io/download/2jqgu/' style='width:300px; height:auto;'><br>%0A          <p>Jak myślisz%2C do kogo odnosi się ten czasownik?</p>%0A        </div>,Emila.,NULL,215
1732282123,d41b49df86d07998af2b12581c99e7ad,Question,46,0,Neg_Final,10,<div>%0A          <img src='https://osf.io/download/39m6k/' style='width:300px; height:auto;'><br>%0A          <p>Jak myślisz%2C komu odpowiada ten emotikon?</p>%0A        </div>,Marka.,NULL,171
1732282123,d41b49df86d07998af2b12581c99e7ad,Question,98,0,Filler,112,<div>%0A          <img src='https://osf.io/download/ju84a/' style='width:300px; height:auto;'><br>%0A          <p>Jak myślisz%2C do kogo odnosi się ten czasownik?</p>%0A        </div>,Danusi.,NULL,408
1732282123,d41b49df86d07998af2b12581c99e7ad,Question,25,0,Neg_Initial,5,<div>%0A          <img src='https://osf.io/download/zjwuq/' style='width:300px; height:auto;'><br>%0A          <p>Jak myślisz%2C komu odpowiada ten emotikon?</p>%0A        </div>,Karolinę.,NULL,409
# Columns below this comment are as follows:
# 1. Time results were received.
# 2. MD5 hash that hopefully uniquely identifies participant.
# 3. Controller name.
# 4. Item number.
# 5. Element number.
# 6. Type.
# 7. Group.
# 8. PennElementType.
# 9. PennElementName.
# 10. Parameter.
# 11. Value.
# 12. EventTime.
# 13. Comments.
1732282123,d41b49df86d07998af2b12581c99e7ad,PennController,1,0,Outro,NULL,PennController,1,_Trial_,Start,1732282279117,NULL
1732282123,d41b49df86d07998af2b12581c99e7ad,PennController,1,0,Outro,NULL,DropDown,gender,Selected,Kobieta,1732282285849,0
1732282123,d41b49df86d07998af2b12581c99e7ad,PennController,1,0,Outro,NULL,DropDown,emoji-use,Selected,Codziennie,1732282289941,0
1732282123,d41b49df86d07998af2b12581c99e7ad,PennController,1,0,Outro,NULL,DropDown,emoji-rec,Selected,Codziennie,1732282292114,0
1732282123,d41b49df86d07998af2b12581c99e7ad,PennController,1,0,Outro,NULL,DropDown,age,Selected,18-29,1732282294640,0
1732282123,d41b49df86d07998af2b12581c99e7ad,PennController,1,0,Outro,NULL,PennController,1,_Trial_,End,1732282300845,NULL
#
# Results on Saturday November 23 2024 21:48:54 UTC.
# USER AGENT: Mozilla/5.0 (Windows NT 10.0; Win64; x64) AppleWebKit/537.36 (KHTML, like Gecko) Chrome/130.0.0.0 Safari/537.36
# Design number was non-random = 4
#
# Columns below this comment are as follows:
# 1. Time results were received.
# 2. MD5 hash that hopefully uniquely identifies participant.
# 3. Controller name.
# 4. Item number.
# 5. Element number.
# 6. Type.
# 7. Group.
# 8. Field name.
# 9. Field value.
1732398534,8266cbdf0dafaed9dcfce61410cd45d7,Form,5,0,intro,NULL,consent,yes
1732398534,8266cbdf0dafaed9dcfce61410cd45d7,Form,5,0,intro,NULL,_REACTION_TIME_,53580
# Columns below this comment are as follows:
# 1. Time results were received.
# 2. MD5 hash that hopefully uniquely identifies participant.
# 3. Controller name.
# 4. Item number.
# 5. Element number.
# 6. Type.
# 7. Group.
# 8. PennElementType.
# 9. PennElementName.
# 10. Parameter.
# 11. Value.
# 12. EventTime.
# 13. Comments.
1732398534,8266cbdf0dafaed9dcfce61410cd45d7,PennController,2,0,Intro1,NULL,PennController,2,_Trial_,Start,1732398486336,NULL
1732398534,8266cbdf0dafaed9dcfce61410cd45d7,PennController,2,0,Intro1,NULL,PennController,2,_Trial_,End,1732398499822,NULL
# The lines below this comment are in groups of 2.
# The formats of the lines in each of these groups are as follows:
#
# Line 1:
#     Col. 1: Time results were received.
#     Col. 2: MD5 hash that hopefully uniquely identifies participant.
#     Col. 3: Controller name.
#     Col. 4: Item number.
#     Col. 5: Element number.
#     Col. 6: Type.
#     Col. 7: Group.
#     Col. 8: Question (NULL if none).
#     Col. 9: Answer.
#     Col. 10: Whether or not answer was correct (NULL if N/A).
#     Col. 11: Time taken to answer.
# Line 2:
#     Col. 1: Time results were received.
#     Col. 2: MD5 hash that hopefully uniquely identifies participant.
#     Col. 3: Controller name.
#     Col. 4: Item number.
#     Col. 5: Element number.
#     Col. 6: Type.
#     Col. 7: Group.
#     Col. 8: PennElementType.
#     Col. 9: PennElementName.
#     Col. 10: Parameter.
#     Col. 11: Value.
#     Col. 12: EventTime.
#     Col. 13: Comments.
1732398534,8266cbdf0dafaed9dcfce61410cd45d7,Question,6,0,practice,201,Send me some practice items and I will put here...,Alright.,NULL,3516
1732398534,8266cbdf0dafaed9dcfce61410cd45d7,PennController,0,0,TrainE,NULL,PennController,0,_Trial_,Start,1732398503377,NULL
# The lines below this comment are in groups of 2.
# The formats of the lines in each of these groups are as follows:
#
# Line 1:
#     Col. 1: Time results were received.
#     Col. 2: MD5 hash that hopefully uniquely identifies participant.
#     Col. 3: Controller name.
#     Col. 4: Item number.
#     Col. 5: Element number.
#     Col. 6: Type.
#     Col. 7: Group.
#     Col. 8: PennElementType.
#     Col. 9: PennElementName.
#     Col. 10: Parameter.
#     Col. 11: Value.
#     Col. 12: EventTime.
#     Col. 13: Comments.
# Line 2:
#     Col. 1: Time results were received.
#     Col. 2: MD5 hash that hopefully uniquely identifies participant.
#     Col. 3: Controller name.
#     Col. 4: Item number.
#     Col. 5: Element number.
#     Col. 6: Type.
#     Col. 7: Group.
#     Col. 8: Question (NULL if none).
#     Col. 9: Answer.
#     Col. 10: Whether or not answer was correct (NULL if N/A).
#     Col. 11: Time taken to answer.
1732398534,8266cbdf0dafaed9dcfce61410cd45d7,PennController,0,0,TrainE,NULL,PennController,0,_Trial_,End,1732398507333,NULL
1732398534,8266cbdf0dafaed9dcfce61410cd45d7,Question,101,0,Filler,115,<div>%0A          <img src='https://osf.io/download/mp3xt/' style='width:300px; height:auto;'><br>%0A          <p>Jak myślisz%2C do kogo odnosi się ten czasownik?</p>%0A        </div>,Jeremi.,NULL,5699
# Columns below this comment are as follows:
# 1. Time results were received.
# 2. MD5 hash that hopefully uniquely identifies participant.
# 3. Controller name.
# 4. Item number.
# 5. Element number.
# 6. Type.
# 7. Group.
# 8. Question (NULL if none).
# 9. Answer.
# 10. Whether or not answer was correct (NULL if N/A).
# 11. Time taken to answer.
1732398534,8266cbdf0dafaed9dcfce61410cd45d7,Question,71,0,Pos_Initial,17,<div>%0A          <img src='https://osf.io/download/egncf/' style='width:300px; height:auto;'><br>%0A          <p>Jak myślisz%2C komu odpowiada ten emotikon?</p>%0A        </div>,Bartek.,NULL,3160
1732398534,8266cbdf0dafaed9dcfce61410cd45d7,Question,102,0,Filler,116,<div>%0A          <img src='https://osf.io/download/m9fhk/' style='width:300px; height:auto;'><br>%0A          <p>Jak myślisz%2C do kogo odnosi się ten czasownik?</p>%0A        </div>,Oliwier.,NULL,4226
1732398534,8266cbdf0dafaed9dcfce61410cd45d7,Question,49,0,Neg_Initial,11,<div>%0A          <img src='https://osf.io/download/6sfru/' style='width:300px; height:auto;'><br>%0A          <p>Jak myślisz%2C komu odpowiada ten emotikon?</p>%0A        </div>,Angelika.,NULL,3952
1732398534,8266cbdf0dafaed9dcfce61410cd45d7,Question,94,0,Filler,108,<div>%0A          <img src='https://osf.io/download/hg5bj/' style='width:300px; height:auto;'><br>%0A          <p>Jak myślisz%2C do kogo odnosi się ten czasownik?</p>%0A        </div>,Antek.,NULL,3375
1732398534,8266cbdf0dafaed9dcfce61410cd45d7,Question,12,0,Pos_Final,2,<div>%0A          <img src='https://osf.io/download/58jr3/' style='width:300px; height:auto;'><br>%0A          <p>Jak myślisz%2C komu odpowiada ten emotikon?</p>%0A        </div>,Zuzia.,NULL,2953
1732398534,8266cbdf0dafaed9dcfce61410cd45d7,Question,98,0,Filler,112,<div>%0A          <img src='https://osf.io/download/ju84a/' style='width:300px; height:auto;'><br>%0A          <p>Jak myślisz%2C do kogo odnosi się ten czasownik?</p>%0A        </div>,Paweł.,NULL,2602
1732398534,8266cbdf0dafaed9dcfce61410cd45d7,Question,54,0,Neg_Final,12,<div>%0A          <img src='https://osf.io/download/u3jx5/' style='width:300px; height:auto;'><br>%0A          <p>Jak myślisz%2C komu odpowiada ten emotikon?</p>%0A        </div>,Julia.,NULL,2952
1732398534,8266cbdf0dafaed9dcfce61410cd45d7,Question,97,0,Filler,111,<div>%0A          <img src='https://osf.io/download/pw7z2/' style='width:300px; height:auto;'><br>%0A          <p>Jak myślisz%2C do kogo odnosi się ten czasownik?</p>%0A        </div>,Szymon.,NULL,2972
1732398534,8266cbdf0dafaed9dcfce61410cd45d7,Question,7,0,Pos_Initial,1,<div>%0A          <img src='https://osf.io/download/t5rej/' style='width:300px; height:auto;'><br>%0A          <p>Jak myślisz%2C komu odpowiada ten emotikon?</p>%0A        </div>,Kasia.,NULL,4128
1732398534,8266cbdf0dafaed9dcfce61410cd45d7,Question,104,0,Filler,118,<div>%0A          <img src='https://osf.io/download/zh4vq/' style='width:300px; height:auto;'><br>%0A          <p>Jak myślisz%2C do kogo odnosi się ten czasownik?</p>%0A        </div>,Agata.,NULL,4384
1732398534,8266cbdf0dafaed9dcfce61410cd45d7,Question,81,0,Neg_Initial,19,<div>%0A          <img src='https://osf.io/download/57b9a/' style='width:300px; height:auto;'><br>%0A          <p>Jak myślisz%2C komu odpowiada ten emotikon?</p>%0A        </div>,Łukasz.,NULL,4309
1732398534,8266cbdf0dafaed9dcfce61410cd45d7,Question,89,0,Filler,103,<div>%0A          <img src='https://osf.io/download/2jqgu/' style='width:300px; height:auto;'><br>%0A          <p>Jak myślisz%2C do kogo odnosi się ten czasownik?</p>%0A        </div>,Oskar.,NULL,9921
1732398534,8266cbdf0dafaed9dcfce61410cd45d7,Question,60,0,Pos_Final,14,<div>%0A          <img src='https://osf.io/download/9wgu6/' style='width:300px; height:auto;'><br>%0A          <p>Jak myślisz%2C komu odpowiada ten emotikon?</p>%0A        </div>,Ewa.,NULL,9833
1732398534,8266cbdf0dafaed9dcfce61410cd45d7,Question,99,0,Filler,113,<div>%0A          <img src='https://osf.io/download/kpx29/' style='width:300px; height:auto;'><br>%0A          <p>Jak myślisz%2C do kogo odnosi się ten czasownik?</p>%0A        </div>,Justyna.,NULL,11821
1732398534,8266cbdf0dafaed9dcfce61410cd45d7,Question,86,0,Neg_Final,20,<div>%0A          <img src='https://osf.io/download/23n67/' style='width:300px; height:auto;'><br>%0A          <p>Jak myślisz%2C komu odpowiada ten emotikon?</p>%0A        </div>,Karol.,NULL,5050
1732398534,8266cbdf0dafaed9dcfce61410cd45d7,Question,96,0,Filler,110,<div>%0A          <img src='https://osf.io/download/6ad9p/' style='width:300px; height:auto;'><br>%0A          <p>Jak myślisz%2C do kogo odnosi się ten czasownik?</p>%0A        </div>,Patrycja.,NULL,13213
1732398534,8266cbdf0dafaed9dcfce61410cd45d7,Question,39,0,Pos_Initial,9,<div>%0A          <img src='https://osf.io/download/egct3/' style='width:300px; height:auto;'><br>%0A          <p>Jak myślisz%2C komu odpowiada ten emotikon?</p>%0A        </div>,Piotrek.,NULL,4500
1732398534,8266cbdf0dafaed9dcfce61410cd45d7,Question,100,0,Filler,114,<div>%0A          <img src='https://osf.io/download/zmrg7/' style='width:300px; height:auto;'><br>%0A          <p>Jak myślisz%2C do kogo odnosi się ten czasownik?</p>%0A        </div>,Gabrysia.,NULL,11206
1732398534,8266cbdf0dafaed9dcfce61410cd45d7,Question,33,0,Neg_Initial,7,<div>%0A          <img src='https://osf.io/download/rt8ez/' style='width:300px; height:auto;'><br>%0A          <p>Jak myślisz%2C komu odpowiada ten emotikon?</p>%0A        </div>,Kuba.,NULL,4455
1732398534,8266cbdf0dafaed9dcfce61410cd45d7,Question,93,0,Filler,107,<div>%0A          <img src='https://osf.io/download/gj8ub/' style='width:300px; height:auto;'><br>%0A          <p>Jak myślisz%2C do kogo odnosi się ten czasownik?</p>%0A        </div>,Sebastian.,NULL,6367
1732398534,8266cbdf0dafaed9dcfce61410cd45d7,Question,44,0,Pos_Final,10,<div>%0A          <img src='https://osf.io/download/kw4re/' style='width:300px; height:auto;'><br>%0A          <p>Jak myślisz%2C komu odpowiada ten emotikon?</p>%0A        </div>,Adam.,NULL,4230
1732398534,8266cbdf0dafaed9dcfce61410cd45d7,Question,103,0,Filler,117,<div>%0A          <img src='https://osf.io/download/jt2zc/' style='width:300px; height:auto;'><br>%0A          <p>Jak myślisz%2C do kogo odnosi się ten czasownik?</p>%0A        </div>,Jowita.,NULL,4015
1732398534,8266cbdf0dafaed9dcfce61410cd45d7,Question,22,0,Neg_Final,4,<div>%0A          <img src='https://osf.io/download/jxs6b/' style='width:300px; height:auto;'><br>%0A          <p>Jak myślisz%2C komu odpowiada ten emotikon?</p>%0A        </div>,Hania.,NULL,3631
1732398534,8266cbdf0dafaed9dcfce61410cd45d7,Question,90,0,Filler,104,<div>%0A          <img src='https://osf.io/download/dz7nj/' style='width:300px; height:auto;'><br>%0A          <p>Jak myślisz%2C do kogo odnosi się ten czasownik?</p>%0A        </div>,Julian.,NULL,9969
1732398534,8266cbdf0dafaed9dcfce61410cd45d7,Question,23,0,Pos_Initial,5,<div>%0A          <img src='https://osf.io/download/6xwzv/' style='width:300px; height:auto;'><br>%0A          <p>Jak myślisz%2C komu odpowiada ten emotikon?</p>%0A        </div>,Maja.,NULL,2888
1732398534,8266cbdf0dafaed9dcfce61410cd45d7,Question,92,0,Filler,106,<div>%0A          <img src='https://osf.io/download/w94eu/' style='width:300px; height:auto;'><br>%0A          <p>Jak myślisz%2C do kogo odnosi się ten czasownik?</p>%0A        </div>,Nina.,NULL,9067
1732398534,8266cbdf0dafaed9dcfce61410cd45d7,Question,65,0,Neg_Initial,15,<div>%0A          <img src='https://osf.io/download/c8ed3/' style='width:300px; height:auto;'><br>%0A          <p>Jak myślisz%2C komu odpowiada ten emotikon?</p>%0A        </div>,Eliza.,NULL,4866
1732398534,8266cbdf0dafaed9dcfce61410cd45d7,Question,106,0,Filler,120,<div>%0A          <img src='https://osf.io/download/ec6qy/' style='width:300px; height:auto;'><br>%0A          <p>Jak myślisz%2C do kogo odnosi się ten czasownik?</p>%0A        </div>,Filip.,NULL,3556
1732398534,8266cbdf0dafaed9dcfce61410cd45d7,Question,28,0,Pos_Final,6,<div>%0A          <img src='https://osf.io/download/c9w3u/' style='width:300px; height:auto;'><br>%0A          <p>Jak myślisz%2C komu odpowiada ten emotikon?</p>%0A        </div>,Daniel.,NULL,2962
1732398534,8266cbdf0dafaed9dcfce61410cd45d7,Question,87,0,Filler,101,<div>%0A          <img src='https://osf.io/download/ydgqk/' style='width:300px; height:auto;'><br>%0A          <p>Jak myślisz%2C do kogo odnosi się ten czasownik?</p>%0A        </div>,Anita.,NULL,3064
1732398534,8266cbdf0dafaed9dcfce61410cd45d7,Question,70,0,Neg_Final,16,<div>%0A          <img src='https://osf.io/download/ktynh/' style='width:300px; height:auto;'><br>%0A          <p>Jak myślisz%2C komu odpowiada ten emotikon?</p>%0A        </div>,Mikołaj.,NULL,3799
1732398534,8266cbdf0dafaed9dcfce61410cd45d7,Question,88,0,Filler,102,<div>%0A          <img src='https://osf.io/download/7a8b6/' style='width:300px; height:auto;'><br>%0A          <p>Jak myślisz%2C do kogo odnosi się ten czasownik?</p>%0A        </div>,Kinga.,NULL,2837
1732398534,8266cbdf0dafaed9dcfce61410cd45d7,Question,55,0,Pos_Initial,13,<div>%0A          <img src='https://osf.io/download/ec2w8/' style='width:300px; height:auto;'><br>%0A          <p>Jak myślisz%2C komu odpowiada ten emotikon?</p>%0A        </div>,Ala.,NULL,4280
1732398534,8266cbdf0dafaed9dcfce61410cd45d7,Question,95,0,Filler,109,<div>%0A          <img src='https://osf.io/download/nrvxq/' style='width:300px; height:auto;'><br>%0A          <p>Jak myślisz%2C do kogo odnosi się ten czasownik?</p>%0A        </div>,Bożenka.,NULL,4930
1732398534,8266cbdf0dafaed9dcfce61410cd45d7,Question,17,0,Neg_Initial,3,<div>%0A          <img src='https://osf.io/download/xkywh/' style='width:300px; height:auto;'><br>%0A          <p>Jak myślisz%2C komu odpowiada ten emotikon?</p>%0A        </div>,Laura.,NULL,3881
1732398534,8266cbdf0dafaed9dcfce61410cd45d7,Question,105,0,Filler,119,<div>%0A          <img src='https://osf.io/download/7m98j/' style='width:300px; height:auto;'><br>%0A          <p>Jak myślisz%2C do kogo odnosi się ten czasownik?</p>%0A        </div>,Henryk.,NULL,5688
1732398534,8266cbdf0dafaed9dcfce61410cd45d7,Question,76,0,Pos_Final,18,<div>%0A          <img src='https://osf.io/download/vd7kc/' style='width:300px; height:auto;'><br>%0A          <p>Jak myślisz%2C komu odpowiada ten emotikon?</p>%0A        </div>,Wiktorię.,NULL,2593
1732398534,8266cbdf0dafaed9dcfce61410cd45d7,Question,91,0,Filler,105,<div>%0A          <img src='https://osf.io/download/9vc6u/' style='width:300px; height:auto;'><br>%0A          <p>Jak myślisz%2C do kogo odnosi się ten czasownik?</p>%0A        </div>,Krysia.,NULL,5373
1732398534,8266cbdf0dafaed9dcfce61410cd45d7,Question,38,0,Neg_Final,8,<div>%0A          <img src='https://osf.io/download/f8vqp/' style='width:300px; height:auto;'><br>%0A          <p>Jak myślisz%2C komu odpowiada ten emotikon?</p>%0A        </div>,Michał.,NULL,3011
#
# Results on Saturday November 23 2024 21:49:13 UTC.
# USER AGENT: Mozilla/5.0 (Windows NT 10.0; Win64; x64) AppleWebKit/537.36 (KHTML, like Gecko) Chrome/130.0.0.0 Safari/537.36
# Design number was non-random = 4
#
# Columns below this comment are as follows:
# 1. Time results were received.
# 2. MD5 hash that hopefully uniquely identifies participant.
# 3. Controller name.
# 4. Item number.
# 5. Element number.
# 6. Type.
# 7. Group.
# 8. Field name.
# 9. Field value.
1732398554,8266cbdf0dafaed9dcfce61410cd45d7,Form,5,0,intro,NULL,consent,yes
1732398554,8266cbdf0dafaed9dcfce61410cd45d7,Form,5,0,intro,NULL,_REACTION_TIME_,53580
# Columns below this comment are as follows:
# 1. Time results were received.
# 2. MD5 hash that hopefully uniquely identifies participant.
# 3. Controller name.
# 4. Item number.
# 5. Element number.
# 6. Type.
# 7. Group.
# 8. PennElementType.
# 9. PennElementName.
# 10. Parameter.
# 11. Value.
# 12. EventTime.
# 13. Comments.
1732398554,8266cbdf0dafaed9dcfce61410cd45d7,PennController,2,0,Intro1,NULL,PennController,2,_Trial_,Start,1732398486336,NULL
1732398554,8266cbdf0dafaed9dcfce61410cd45d7,PennController,2,0,Intro1,NULL,PennController,2,_Trial_,End,1732398499822,NULL
# The lines below this comment are in groups of 2.
# The formats of the lines in each of these groups are as follows:
#
# Line 1:
#     Col. 1: Time results were received.
#     Col. 2: MD5 hash that hopefully uniquely identifies participant.
#     Col. 3: Controller name.
#     Col. 4: Item number.
#     Col. 5: Element number.
#     Col. 6: Type.
#     Col. 7: Group.
#     Col. 8: Question (NULL if none).
#     Col. 9: Answer.
#     Col. 10: Whether or not answer was correct (NULL if N/A).
#     Col. 11: Time taken to answer.
# Line 2:
#     Col. 1: Time results were received.
#     Col. 2: MD5 hash that hopefully uniquely identifies participant.
#     Col. 3: Controller name.
#     Col. 4: Item number.
#     Col. 5: Element number.
#     Col. 6: Type.
#     Col. 7: Group.
#     Col. 8: PennElementType.
#     Col. 9: PennElementName.
#     Col. 10: Parameter.
#     Col. 11: Value.
#     Col. 12: EventTime.
#     Col. 13: Comments.
1732398554,8266cbdf0dafaed9dcfce61410cd45d7,Question,6,0,practice,201,Send me some practice items and I will put here...,Alright.,NULL,3516
1732398554,8266cbdf0dafaed9dcfce61410cd45d7,PennController,0,0,TrainE,NULL,PennController,0,_Trial_,Start,1732398503377,NULL
# The lines below this comment are in groups of 2.
# The formats of the lines in each of these groups are as follows:
#
# Line 1:
#     Col. 1: Time results were received.
#     Col. 2: MD5 hash that hopefully uniquely identifies participant.
#     Col. 3: Controller name.
#     Col. 4: Item number.
#     Col. 5: Element number.
#     Col. 6: Type.
#     Col. 7: Group.
#     Col. 8: PennElementType.
#     Col. 9: PennElementName.
#     Col. 10: Parameter.
#     Col. 11: Value.
#     Col. 12: EventTime.
#     Col. 13: Comments.
# Line 2:
#     Col. 1: Time results were received.
#     Col. 2: MD5 hash that hopefully uniquely identifies participant.
#     Col. 3: Controller name.
#     Col. 4: Item number.
#     Col. 5: Element number.
#     Col. 6: Type.
#     Col. 7: Group.
#     Col. 8: Question (NULL if none).
#     Col. 9: Answer.
#     Col. 10: Whether or not answer was correct (NULL if N/A).
#     Col. 11: Time taken to answer.
1732398554,8266cbdf0dafaed9dcfce61410cd45d7,PennController,0,0,TrainE,NULL,PennController,0,_Trial_,End,1732398507333,NULL
1732398554,8266cbdf0dafaed9dcfce61410cd45d7,Question,101,0,Filler,115,<div>%0A          <img src='https://osf.io/download/mp3xt/' style='width:300px; height:auto;'><br>%0A          <p>Jak myślisz%2C do kogo odnosi się ten czasownik?</p>%0A        </div>,Jeremi.,NULL,5699
# Columns below this comment are as follows:
# 1. Time results were received.
# 2. MD5 hash that hopefully uniquely identifies participant.
# 3. Controller name.
# 4. Item number.
# 5. Element number.
# 6. Type.
# 7. Group.
# 8. Question (NULL if none).
# 9. Answer.
# 10. Whether or not answer was correct (NULL if N/A).
# 11. Time taken to answer.
1732398554,8266cbdf0dafaed9dcfce61410cd45d7,Question,71,0,Pos_Initial,17,<div>%0A          <img src='https://osf.io/download/egncf/' style='width:300px; height:auto;'><br>%0A          <p>Jak myślisz%2C komu odpowiada ten emotikon?</p>%0A        </div>,Bartek.,NULL,3160
1732398554,8266cbdf0dafaed9dcfce61410cd45d7,Question,102,0,Filler,116,<div>%0A          <img src='https://osf.io/download/m9fhk/' style='width:300px; height:auto;'><br>%0A          <p>Jak myślisz%2C do kogo odnosi się ten czasownik?</p>%0A        </div>,Oliwier.,NULL,4226
1732398554,8266cbdf0dafaed9dcfce61410cd45d7,Question,49,0,Neg_Initial,11,<div>%0A          <img src='https://osf.io/download/6sfru/' style='width:300px; height:auto;'><br>%0A          <p>Jak myślisz%2C komu odpowiada ten emotikon?</p>%0A        </div>,Angelika.,NULL,3952
1732398554,8266cbdf0dafaed9dcfce61410cd45d7,Question,94,0,Filler,108,<div>%0A          <img src='https://osf.io/download/hg5bj/' style='width:300px; height:auto;'><br>%0A          <p>Jak myślisz%2C do kogo odnosi się ten czasownik?</p>%0A        </div>,Antek.,NULL,3375
1732398554,8266cbdf0dafaed9dcfce61410cd45d7,Question,12,0,Pos_Final,2,<div>%0A          <img src='https://osf.io/download/58jr3/' style='width:300px; height:auto;'><br>%0A          <p>Jak myślisz%2C komu odpowiada ten emotikon?</p>%0A        </div>,Zuzia.,NULL,2953
1732398554,8266cbdf0dafaed9dcfce61410cd45d7,Question,98,0,Filler,112,<div>%0A          <img src='https://osf.io/download/ju84a/' style='width:300px; height:auto;'><br>%0A          <p>Jak myślisz%2C do kogo odnosi się ten czasownik?</p>%0A        </div>,Paweł.,NULL,2602
1732398554,8266cbdf0dafaed9dcfce61410cd45d7,Question,54,0,Neg_Final,12,<div>%0A          <img src='https://osf.io/download/u3jx5/' style='width:300px; height:auto;'><br>%0A          <p>Jak myślisz%2C komu odpowiada ten emotikon?</p>%0A        </div>,Julia.,NULL,2952
1732398554,8266cbdf0dafaed9dcfce61410cd45d7,Question,97,0,Filler,111,<div>%0A          <img src='https://osf.io/download/pw7z2/' style='width:300px; height:auto;'><br>%0A          <p>Jak myślisz%2C do kogo odnosi się ten czasownik?</p>%0A        </div>,Szymon.,NULL,2972
1732398554,8266cbdf0dafaed9dcfce61410cd45d7,Question,7,0,Pos_Initial,1,<div>%0A          <img src='https://osf.io/download/t5rej/' style='width:300px; height:auto;'><br>%0A          <p>Jak myślisz%2C komu odpowiada ten emotikon?</p>%0A        </div>,Kasia.,NULL,4128
1732398554,8266cbdf0dafaed9dcfce61410cd45d7,Question,104,0,Filler,118,<div>%0A          <img src='https://osf.io/download/zh4vq/' style='width:300px; height:auto;'><br>%0A          <p>Jak myślisz%2C do kogo odnosi się ten czasownik?</p>%0A        </div>,Agata.,NULL,4384
1732398554,8266cbdf0dafaed9dcfce61410cd45d7,Question,81,0,Neg_Initial,19,<div>%0A          <img src='https://osf.io/download/57b9a/' style='width:300px; height:auto;'><br>%0A          <p>Jak myślisz%2C komu odpowiada ten emotikon?</p>%0A        </div>,Łukasz.,NULL,4309
1732398554,8266cbdf0dafaed9dcfce61410cd45d7,Question,89,0,Filler,103,<div>%0A          <img src='https://osf.io/download/2jqgu/' style='width:300px; height:auto;'><br>%0A          <p>Jak myślisz%2C do kogo odnosi się ten czasownik?</p>%0A        </div>,Oskar.,NULL,9921
1732398554,8266cbdf0dafaed9dcfce61410cd45d7,Question,60,0,Pos_Final,14,<div>%0A          <img src='https://osf.io/download/9wgu6/' style='width:300px; height:auto;'><br>%0A          <p>Jak myślisz%2C komu odpowiada ten emotikon?</p>%0A        </div>,Ewa.,NULL,9833
1732398554,8266cbdf0dafaed9dcfce61410cd45d7,Question,99,0,Filler,113,<div>%0A          <img src='https://osf.io/download/kpx29/' style='width:300px; height:auto;'><br>%0A          <p>Jak myślisz%2C do kogo odnosi się ten czasownik?</p>%0A        </div>,Justyna.,NULL,11821
1732398554,8266cbdf0dafaed9dcfce61410cd45d7,Question,86,0,Neg_Final,20,<div>%0A          <img src='https://osf.io/download/23n67/' style='width:300px; height:auto;'><br>%0A          <p>Jak myślisz%2C komu odpowiada ten emotikon?</p>%0A        </div>,Karol.,NULL,5050
1732398554,8266cbdf0dafaed9dcfce61410cd45d7,Question,96,0,Filler,110,<div>%0A          <img src='https://osf.io/download/6ad9p/' style='width:300px; height:auto;'><br>%0A          <p>Jak myślisz%2C do kogo odnosi się ten czasownik?</p>%0A        </div>,Patrycja.,NULL,13213
1732398554,8266cbdf0dafaed9dcfce61410cd45d7,Question,39,0,Pos_Initial,9,<div>%0A          <img src='https://osf.io/download/egct3/' style='width:300px; height:auto;'><br>%0A          <p>Jak myślisz%2C komu odpowiada ten emotikon?</p>%0A        </div>,Piotrek.,NULL,4500
1732398554,8266cbdf0dafaed9dcfce61410cd45d7,Question,100,0,Filler,114,<div>%0A          <img src='https://osf.io/download/zmrg7/' style='width:300px; height:auto;'><br>%0A          <p>Jak myślisz%2C do kogo odnosi się ten czasownik?</p>%0A        </div>,Gabrysia.,NULL,11206
1732398554,8266cbdf0dafaed9dcfce61410cd45d7,Question,33,0,Neg_Initial,7,<div>%0A          <img src='https://osf.io/download/rt8ez/' style='width:300px; height:auto;'><br>%0A          <p>Jak myślisz%2C komu odpowiada ten emotikon?</p>%0A        </div>,Kuba.,NULL,4455
1732398554,8266cbdf0dafaed9dcfce61410cd45d7,Question,93,0,Filler,107,<div>%0A          <img src='https://osf.io/download/gj8ub/' style='width:300px; height:auto;'><br>%0A          <p>Jak myślisz%2C do kogo odnosi się ten czasownik?</p>%0A        </div>,Sebastian.,NULL,6367
1732398554,8266cbdf0dafaed9dcfce61410cd45d7,Question,44,0,Pos_Final,10,<div>%0A          <img src='https://osf.io/download/kw4re/' style='width:300px; height:auto;'><br>%0A          <p>Jak myślisz%2C komu odpowiada ten emotikon?</p>%0A        </div>,Adam.,NULL,4230
1732398554,8266cbdf0dafaed9dcfce61410cd45d7,Question,103,0,Filler,117,<div>%0A          <img src='https://osf.io/download/jt2zc/' style='width:300px; height:auto;'><br>%0A          <p>Jak myślisz%2C do kogo odnosi się ten czasownik?</p>%0A        </div>,Jowita.,NULL,4015
1732398554,8266cbdf0dafaed9dcfce61410cd45d7,Question,22,0,Neg_Final,4,<div>%0A          <img src='https://osf.io/download/jxs6b/' style='width:300px; height:auto;'><br>%0A          <p>Jak myślisz%2C komu odpowiada ten emotikon?</p>%0A        </div>,Hania.,NULL,3631
1732398554,8266cbdf0dafaed9dcfce61410cd45d7,Question,90,0,Filler,104,<div>%0A          <img src='https://osf.io/download/dz7nj/' style='width:300px; height:auto;'><br>%0A          <p>Jak myślisz%2C do kogo odnosi się ten czasownik?</p>%0A        </div>,Julian.,NULL,9969
1732398554,8266cbdf0dafaed9dcfce61410cd45d7,Question,23,0,Pos_Initial,5,<div>%0A          <img src='https://osf.io/download/6xwzv/' style='width:300px; height:auto;'><br>%0A          <p>Jak myślisz%2C komu odpowiada ten emotikon?</p>%0A        </div>,Maja.,NULL,2888
1732398554,8266cbdf0dafaed9dcfce61410cd45d7,Question,92,0,Filler,106,<div>%0A          <img src='https://osf.io/download/w94eu/' style='width:300px; height:auto;'><br>%0A          <p>Jak myślisz%2C do kogo odnosi się ten czasownik?</p>%0A        </div>,Nina.,NULL,9067
1732398554,8266cbdf0dafaed9dcfce61410cd45d7,Question,65,0,Neg_Initial,15,<div>%0A          <img src='https://osf.io/download/c8ed3/' style='width:300px; height:auto;'><br>%0A          <p>Jak myślisz%2C komu odpowiada ten emotikon?</p>%0A        </div>,Eliza.,NULL,4866
1732398554,8266cbdf0dafaed9dcfce61410cd45d7,Question,106,0,Filler,120,<div>%0A          <img src='https://osf.io/download/ec6qy/' style='width:300px; height:auto;'><br>%0A          <p>Jak myślisz%2C do kogo odnosi się ten czasownik?</p>%0A        </div>,Filip.,NULL,3556
1732398554,8266cbdf0dafaed9dcfce61410cd45d7,Question,28,0,Pos_Final,6,<div>%0A          <img src='https://osf.io/download/c9w3u/' style='width:300px; height:auto;'><br>%0A          <p>Jak myślisz%2C komu odpowiada ten emotikon?</p>%0A        </div>,Daniel.,NULL,2962
1732398554,8266cbdf0dafaed9dcfce61410cd45d7,Question,87,0,Filler,101,<div>%0A          <img src='https://osf.io/download/ydgqk/' style='width:300px; height:auto;'><br>%0A          <p>Jak myślisz%2C do kogo odnosi się ten czasownik?</p>%0A        </div>,Anita.,NULL,3064
1732398554,8266cbdf0dafaed9dcfce61410cd45d7,Question,70,0,Neg_Final,16,<div>%0A          <img src='https://osf.io/download/ktynh/' style='width:300px; height:auto;'><br>%0A          <p>Jak myślisz%2C komu odpowiada ten emotikon?</p>%0A        </div>,Mikołaj.,NULL,3799
1732398554,8266cbdf0dafaed9dcfce61410cd45d7,Question,88,0,Filler,102,<div>%0A          <img src='https://osf.io/download/7a8b6/' style='width:300px; height:auto;'><br>%0A          <p>Jak myślisz%2C do kogo odnosi się ten czasownik?</p>%0A        </div>,Kinga.,NULL,2837
1732398554,8266cbdf0dafaed9dcfce61410cd45d7,Question,55,0,Pos_Initial,13,<div>%0A          <img src='https://osf.io/download/ec2w8/' style='width:300px; height:auto;'><br>%0A          <p>Jak myślisz%2C komu odpowiada ten emotikon?</p>%0A        </div>,Ala.,NULL,4280
1732398554,8266cbdf0dafaed9dcfce61410cd45d7,Question,95,0,Filler,109,<div>%0A          <img src='https://osf.io/download/nrvxq/' style='width:300px; height:auto;'><br>%0A          <p>Jak myślisz%2C do kogo odnosi się ten czasownik?</p>%0A        </div>,Bożenka.,NULL,4930
1732398554,8266cbdf0dafaed9dcfce61410cd45d7,Question,17,0,Neg_Initial,3,<div>%0A          <img src='https://osf.io/download/xkywh/' style='width:300px; height:auto;'><br>%0A          <p>Jak myślisz%2C komu odpowiada ten emotikon?</p>%0A        </div>,Laura.,NULL,3881
1732398554,8266cbdf0dafaed9dcfce61410cd45d7,Question,105,0,Filler,119,<div>%0A          <img src='https://osf.io/download/7m98j/' style='width:300px; height:auto;'><br>%0A          <p>Jak myślisz%2C do kogo odnosi się ten czasownik?</p>%0A        </div>,Henryk.,NULL,5688
1732398554,8266cbdf0dafaed9dcfce61410cd45d7,Question,76,0,Pos_Final,18,<div>%0A          <img src='https://osf.io/download/vd7kc/' style='width:300px; height:auto;'><br>%0A          <p>Jak myślisz%2C komu odpowiada ten emotikon?</p>%0A        </div>,Wiktorię.,NULL,2593
1732398554,8266cbdf0dafaed9dcfce61410cd45d7,Question,91,0,Filler,105,<div>%0A          <img src='https://osf.io/download/9vc6u/' style='width:300px; height:auto;'><br>%0A          <p>Jak myślisz%2C do kogo odnosi się ten czasownik?</p>%0A        </div>,Krysia.,NULL,5373
1732398554,8266cbdf0dafaed9dcfce61410cd45d7,Question,38,0,Neg_Final,8,<div>%0A          <img src='https://osf.io/download/f8vqp/' style='width:300px; height:auto;'><br>%0A          <p>Jak myślisz%2C komu odpowiada ten emotikon?</p>%0A        </div>,Michał.,NULL,3011
# Columns below this comment are as follows:
# 1. Time results were received.
# 2. MD5 hash that hopefully uniquely identifies participant.
# 3. Controller name.
# 4. Item number.
# 5. Element number.
# 6. Type.
# 7. Group.
# 8. PennElementType.
# 9. PennElementName.
# 10. Parameter.
# 11. Value.
# 12. EventTime.
# 13. Comments.
1732398554,8266cbdf0dafaed9dcfce61410cd45d7,PennController,1,0,Outro,NULL,PennController,1,_Trial_,Start,1732398713606,NULL
1732398554,8266cbdf0dafaed9dcfce61410cd45d7,PennController,1,0,Outro,NULL,DropDown,gender,Selected,Kobieta,1732398723106,0
1732398554,8266cbdf0dafaed9dcfce61410cd45d7,PennController,1,0,Outro,NULL,DropDown,emoji-use,Selected,Codziennie,1732398726214,0
1732398554,8266cbdf0dafaed9dcfce61410cd45d7,PennController,1,0,Outro,NULL,DropDown,emoji-rec,Selected,Czasami,1732398729124,1
1732398554,8266cbdf0dafaed9dcfce61410cd45d7,PennController,1,0,Outro,NULL,DropDown,age,Selected,18-29,1732398731737,0
1732398554,8266cbdf0dafaed9dcfce61410cd45d7,PennController,1,0,Outro,NULL,PennController,1,_Trial_,End,1732398733264,NULL
#
# Results on Saturday November 23 2024 22:37:58 UTC.
# USER AGENT: Mozilla/5.0 (Windows NT 10.0; Win64; x64; rv:132.0) Gecko/20100101 Firefox/132.0
# Design number was non-random = 6
#
# Columns below this comment are as follows:
# 1. Time results were received.
# 2. MD5 hash that hopefully uniquely identifies participant.
# 3. Controller name.
# 4. Item number.
# 5. Element number.
# 6. Type.
# 7. Group.
# 8. Field name.
# 9. Field value.
1732401479,cf1a953dffd2eac7a8e2c5a7c5b51660,Form,5,0,intro,NULL,consent,yes
1732401479,cf1a953dffd2eac7a8e2c5a7c5b51660,Form,5,0,intro,NULL,_REACTION_TIME_,10913
# Columns below this comment are as follows:
# 1. Time results were received.
# 2. MD5 hash that hopefully uniquely identifies participant.
# 3. Controller name.
# 4. Item number.
# 5. Element number.
# 6. Type.
# 7. Group.
# 8. PennElementType.
# 9. PennElementName.
# 10. Parameter.
# 11. Value.
# 12. EventTime.
# 13. Comments.
1732401479,cf1a953dffd2eac7a8e2c5a7c5b51660,PennController,2,0,Intro1,NULL,PennController,2,_Trial_,Start,1732401442174,NULL
1732401479,cf1a953dffd2eac7a8e2c5a7c5b51660,PennController,2,0,Intro1,NULL,PennController,2,_Trial_,End,1732401620544,NULL
# Columns below this comment are as follows:
# 1. Time results were received.
# 2. MD5 hash that hopefully uniquely identifies participant.
# 3. Controller name.
# 4. Item number.
# 5. Element number.
# 6. Type.
# 7. Group.
# 8. Question (NULL if none).
# 9. Answer.
# 10. Whether or not answer was correct (NULL if N/A).
# 11. Time taken to answer.
1732401479,cf1a953dffd2eac7a8e2c5a7c5b51660,Question,6,0,practice,201,<p> Emotikon wyraża emocje: </p>,Nadawcy wiadomości.,NULL,1232
1732401479,cf1a953dffd2eac7a8e2c5a7c5b51660,Question,7,0,practice,202,<p> Czasownik wyraża emocje: </p>,Nadawcy wiadomości.,NULL,703
# Columns below this comment are as follows:
# 1. Time results were received.
# 2. MD5 hash that hopefully uniquely identifies participant.
# 3. Controller name.
# 4. Item number.
# 5. Element number.
# 6. Type.
# 7. Group.
# 8. PennElementType.
# 9. PennElementName.
# 10. Parameter.
# 11. Value.
# 12. EventTime.
# 13. Comments.
1732401479,cf1a953dffd2eac7a8e2c5a7c5b51660,PennController,0,0,TrainE,NULL,PennController,0,_Trial_,Start,1732401622494,NULL
1732401479,cf1a953dffd2eac7a8e2c5a7c5b51660,PennController,0,0,TrainE,NULL,PennController,0,_Trial_,End,1732401646377,NULL
# Columns below this comment are as follows:
# 1. Time results were received.
# 2. MD5 hash that hopefully uniquely identifies participant.
# 3. Controller name.
# 4. Item number.
# 5. Element number.
# 6. Type.
# 7. Group.
# 8. Question (NULL if none).
# 9. Answer.
# 10. Whether or not answer was correct (NULL if N/A).
# 11. Time taken to answer.
1732401479,cf1a953dffd2eac7a8e2c5a7c5b51660,Question,99,0,Filler,112,<div>%0A          <img src='https://osf.io/download/ju84a/' style='width:300px; height:auto;'><br>%0A          <p>Czasownik wyraża emocje:</p>%0A        </div>,Nadawcy wiadomości.,NULL,3443
1732401479,cf1a953dffd2eac7a8e2c5a7c5b51660,Question,26,0,Neg_Initial,5,<div>%0A          <img src='https://osf.io/download/zjwuq/' style='width:300px; height:auto;'><br>%0A          <p>Emotikon wyraża emocje:</p>%0A        </div>,Mai.,NULL,1854
1732401479,cf1a953dffd2eac7a8e2c5a7c5b51660,Question,106,0,Filler,119,<div>%0A          <img src='https://osf.io/download/7m98j/' style='width:300px; height:auto;'><br>%0A          <p>Czasownik wyraża emocje:</p>%0A        </div>,Jacka.,NULL,463
1732401479,cf1a953dffd2eac7a8e2c5a7c5b51660,Question,32,0,Pos_Initial,7,<div>%0A          <img src='https://osf.io/download/68z7b/' style='width:300px; height:auto;'><br>%0A          <p>Emotikon wyraża emocje:</p>%0A        </div>,Olka.,NULL,192
1732401479,cf1a953dffd2eac7a8e2c5a7c5b51660,Question,96,0,Filler,109,<div>%0A          <img src='https://osf.io/download/nrvxq/' style='width:300px; height:auto;'><br>%0A          <p>Czasownik wyraża emocje:</p>%0A        </div>,Igora.,NULL,166
1732401479,cf1a953dffd2eac7a8e2c5a7c5b51660,Question,15,0,Neg_Final,2,<div>%0A          <img src='https://osf.io/download/twfv2/' style='width:300px; height:auto;'><br>%0A          <p>Emotikon wyraża emocje:</p>%0A        </div>,Oliwii.,NULL,142
1732401479,cf1a953dffd2eac7a8e2c5a7c5b51660,Question,93,0,Filler,106,<div>%0A          <img src='https://osf.io/download/w94eu/' style='width:300px; height:auto;'><br>%0A          <p>Czasownik wyraża emocje:</p>%0A        </div>,Basi.,NULL,141
1732401479,cf1a953dffd2eac7a8e2c5a7c5b51660,Question,53,0,Pos_Final,12,<div>%0A          <img src='https://osf.io/download/wpx9e/' style='width:300px; height:auto;'><br>%0A          <p>Emotikon wyraża emocje:</p>%0A        </div>,Wiktora.,NULL,142
1732401479,cf1a953dffd2eac7a8e2c5a7c5b51660,Question,90,0,Filler,103,<div>%0A          <img src='https://osf.io/download/2jqgu/' style='width:300px; height:auto;'><br>%0A          <p>Czasownik wyraża emocje:</p>%0A        </div>,Emila.,NULL,254
1732401479,cf1a953dffd2eac7a8e2c5a7c5b51660,Question,58,0,Neg_Initial,13,<div>%0A          <img src='https://osf.io/download/knpem/' style='width:300px; height:auto;'><br>%0A          <p>Emotikon wyraża emocje:</p>%0A        </div>,Mateusza.,NULL,148
1732401479,cf1a953dffd2eac7a8e2c5a7c5b51660,Question,97,0,Filler,110,<div>%0A          <img src='https://osf.io/download/6ad9p/' style='width:300px; height:auto;'><br>%0A          <p>Czasownik wyraża emocje:</p>%0A        </div>,Oli.,NULL,128
1732401479,cf1a953dffd2eac7a8e2c5a7c5b51660,Question,80,0,Pos_Initial,19,<div>%0A          <img src='https://osf.io/download/r7keh/' style='width:300px; height:auto;'><br>%0A          <p>Emotikon wyraża emocje:</p>%0A        </div>,Emilii.,NULL,158
1732401479,cf1a953dffd2eac7a8e2c5a7c5b51660,Question,89,0,Filler,102,<div>%0A          <img src='https://osf.io/download/7a8b6/' style='width:300px; height:auto;'><br>%0A          <p>Czasownik wyraża emocje:</p>%0A        </div>,Marty.,NULL,141
1732401479,cf1a953dffd2eac7a8e2c5a7c5b51660,Question,47,0,Neg_Final,10,<div>%0A          <img src='https://osf.io/download/39m6k/' style='width:300px; height:auto;'><br>%0A          <p>Emotikon wyraża emocje:</p>%0A        </div>,Marka.,NULL,162
1732401479,cf1a953dffd2eac7a8e2c5a7c5b51660,Question,92,0,Filler,105,<div>%0A          <img src='https://osf.io/download/9vc6u/' style='width:300px; height:auto;'><br>%0A          <p>Czasownik wyraża emocje:</p>%0A        </div>,Maćka.,NULL,137
1732401479,cf1a953dffd2eac7a8e2c5a7c5b51660,Question,85,0,Pos_Final,20,<div>%0A          <img src='https://osf.io/download/awhqf/' style='width:300px; height:auto;'><br>%0A          <p>Emotikon wyraża emocje:</p>%0A        </div>,Moniki.,NULL,138
1732401479,cf1a953dffd2eac7a8e2c5a7c5b51660,Question,101,0,Filler,114,<div>%0A          <img src='https://osf.io/download/zmrg7/' style='width:300px; height:auto;'><br>%0A          <p>Czasownik wyraża emocje:</p>%0A        </div>,Amelki.,NULL,103
1732401479,cf1a953dffd2eac7a8e2c5a7c5b51660,Question,42,0,Neg_Initial,9,<div>%0A          <img src='https://osf.io/download/cnhpf/' style='width:300px; height:auto;'><br>%0A          <p>Emotikon wyraża emocje:</p>%0A        </div>,Tomka.,NULL,136
1732401479,cf1a953dffd2eac7a8e2c5a7c5b51660,Question,91,0,Filler,104,<div>%0A          <img src='https://osf.io/download/dz7nj/' style='width:300px; height:auto;'><br>%0A          <p>Czasownik wyraża emocje:</p>%0A        </div>,Anety.,NULL,141
1732401479,cf1a953dffd2eac7a8e2c5a7c5b51660,Question,16,0,Pos_Initial,3,<div>%0A          <img src='https://osf.io/download/tvzpc/' style='width:300px; height:auto;'><br>%0A          <p>Emotikon wyraża emocje:</p>%0A        </div>,Marii.,NULL,129
1732401479,cf1a953dffd2eac7a8e2c5a7c5b51660,Question,104,0,Filler,117,<div>%0A          <img src='https://osf.io/download/jt2zc/' style='width:300px; height:auto;'><br>%0A          <p>Czasownik wyraża emocje:</p>%0A        </div>,Leszka.,NULL,135
1732401479,cf1a953dffd2eac7a8e2c5a7c5b51660,Question,79,0,Neg_Final,18,<div>%0A          <img src='https://osf.io/download/qpt82/' style='width:300px; height:auto;'><br>%0A          <p>Emotikon wyraża emocje:</p>%0A        </div>,Wiktorii.,NULL,145
1732401479,cf1a953dffd2eac7a8e2c5a7c5b51660,Question,94,0,Filler,107,<div>%0A          <img src='https://osf.io/download/gj8ub/' style='width:300px; height:auto;'><br>%0A          <p>Czasownik wyraża emocje:</p>%0A        </div>,Bogdana.,NULL,149
1732401479,cf1a953dffd2eac7a8e2c5a7c5b51660,Question,21,0,Pos_Final,4,<div>%0A          <img src='https://osf.io/download/rj8hb/' style='width:300px; height:auto;'><br>%0A          <p>Emotikon wyraża emocje:</p>%0A        </div>,Ani.,NULL,138
1732401479,cf1a953dffd2eac7a8e2c5a7c5b51660,Question,105,0,Filler,118,<div>%0A          <img src='https://osf.io/download/zh4vq/' style='width:300px; height:auto;'><br>%0A          <p>Czasownik wyraża emocje:</p>%0A        </div>,Klaudii.,NULL,155
1732401479,cf1a953dffd2eac7a8e2c5a7c5b51660,Question,74,0,Neg_Initial,17,<div>%0A          <img src='https://osf.io/download/8f7dz/' style='width:300px; height:auto;'><br>%0A          <p>Emotikon wyraża emocje:</p>%0A        </div>,Pauliny.,NULL,122
1732401479,cf1a953dffd2eac7a8e2c5a7c5b51660,Question,102,0,Filler,115,<div>%0A          <img src='https://osf.io/download/mp3xt/' style='width:300px; height:auto;'><br>%0A          <p>Czasownik wyraża emocje:</p>%0A        </div>,Konrada.,NULL,146
1732401479,cf1a953dffd2eac7a8e2c5a7c5b51660,Question,48,0,Pos_Initial,11,<div>%0A          <img src='https://osf.io/download/syhq2/' style='width:300px; height:auto;'><br>%0A          <p>Emotikon wyraża emocje:</p>%0A        </div>,Jana.,NULL,170
1732401479,cf1a953dffd2eac7a8e2c5a7c5b51660,Question,88,0,Filler,101,<div>%0A        <img src='https://osf.io/download/ydgqk/' style='width:300px; height:auto;'>%0A          <p>Czasownik wyraża emocje:</p>%0A        </div>,Ludwika.,NULL,133
1732401479,cf1a953dffd2eac7a8e2c5a7c5b51660,Question,63,0,Neg_Final,14,<div>%0A          <img src='https://osf.io/download/ne94q/' style='width:300px; height:auto;'><br>%0A          <p>Emotikon wyraża emocje:</p>%0A        </div>,Krzysia.,NULL,158
1732401479,cf1a953dffd2eac7a8e2c5a7c5b51660,Question,100,0,Filler,113,<div>%0A          <img src='https://osf.io/download/kpx29/' style='width:300px; height:auto;'><br>%0A          <p>Czasownik wyraża emocje:</p>%0A        </div>,Adriana.,NULL,142
1732401479,cf1a953dffd2eac7a8e2c5a7c5b51660,Question,37,0,Pos_Final,8,<div>%0A          <img src='https://osf.io/download/s2vq7/' style='width:300px; height:auto;'><br>%0A          <p>Emotikon wyraża emocje:</p>%0A        </div>,Roberta.,NULL,151
1732401479,cf1a953dffd2eac7a8e2c5a7c5b51660,Question,103,0,Filler,116,<div>%0A          <img src='https://osf.io/download/m9fhk/' style='width:300px; height:auto;'><br>%0A          <p>Czasownik wyraża emocje:</p>%0A        </div>,Uli.,NULL,288
1732401479,cf1a953dffd2eac7a8e2c5a7c5b51660,Question,10,0,Neg_Initial,1,<div>%0A          <img src='https://osf.io/download/wr5m9/' style='width:300px; height:auto;'><br>%0A          <p>Emotikon wyraża emocje:</p>%0A        </div>,Zosi.,NULL,150
1732401479,cf1a953dffd2eac7a8e2c5a7c5b51660,Question,95,0,Filler,108,<div>%0A          <img src='https://osf.io/download/hg5bj/' style='width:300px; height:auto;'><br>%0A          <p>Czasownik wyraża emocje:</p>%0A        </div>,Soni.,NULL,154
1732401479,cf1a953dffd2eac7a8e2c5a7c5b51660,Question,64,0,Pos_Initial,15,<div>%0A          <img src='https://osf.io/download/6zy52/' style='width:300px; height:auto;'><br>%0A          <p>Emotikon wyraża emocje:</p>%0A        </div>,Grzesia.,NULL,167
1732401479,cf1a953dffd2eac7a8e2c5a7c5b51660,Question,98,0,Filler,111,<div>%0A          <img src='https://osf.io/download/pw7z2/' style='width:300px; height:auto;'><br>%0A          <p>Czasownik wyraża emocje:</p>%0A        </div>,Krystiana.,NULL,203
1732401479,cf1a953dffd2eac7a8e2c5a7c5b51660,Question,31,0,Neg_Final,6,<div>%0A          <img src='https://osf.io/download/k8nje/' style='width:300px; height:auto;'><br>%0A          <p>Emotikon wyraża emocje:</p>%0A        </div>,Kacpra.,NULL,272
1732401479,cf1a953dffd2eac7a8e2c5a7c5b51660,Question,107,0,Filler,120,<div>%0A          <img src='https://osf.io/download/ec6qy/' style='width:300px; height:auto;'><br>%0A          <p>Czasownik wyraża emocje:</p>%0A        </div>,Izy.,NULL,267
1732401479,cf1a953dffd2eac7a8e2c5a7c5b51660,Question,69,0,Pos_Final,16,<div>%0A          <img src='https://osf.io/download/t4735/' style='width:300px; height:auto;'><br>%0A          <p>Emotikon wyraża emocje:</p>%0A        </div>,Weroniki.,NULL,358
#
# Results on Saturday November 23 2024 22:38:34 UTC.
# USER AGENT: Mozilla/5.0 (Windows NT 10.0; Win64; x64; rv:132.0) Gecko/20100101 Firefox/132.0
# Design number was non-random = 6
#
# Columns below this comment are as follows:
# 1. Time results were received.
# 2. MD5 hash that hopefully uniquely identifies participant.
# 3. Controller name.
# 4. Item number.
# 5. Element number.
# 6. Type.
# 7. Group.
# 8. Field name.
# 9. Field value.
1732401514,cf1a953dffd2eac7a8e2c5a7c5b51660,Form,5,0,intro,NULL,consent,yes
1732401514,cf1a953dffd2eac7a8e2c5a7c5b51660,Form,5,0,intro,NULL,_REACTION_TIME_,10913
# Columns below this comment are as follows:
# 1. Time results were received.
# 2. MD5 hash that hopefully uniquely identifies participant.
# 3. Controller name.
# 4. Item number.
# 5. Element number.
# 6. Type.
# 7. Group.
# 8. PennElementType.
# 9. PennElementName.
# 10. Parameter.
# 11. Value.
# 12. EventTime.
# 13. Comments.
1732401514,cf1a953dffd2eac7a8e2c5a7c5b51660,PennController,2,0,Intro1,NULL,PennController,2,_Trial_,Start,1732401442174,NULL
1732401514,cf1a953dffd2eac7a8e2c5a7c5b51660,PennController,2,0,Intro1,NULL,PennController,2,_Trial_,End,1732401620544,NULL
# Columns below this comment are as follows:
# 1. Time results were received.
# 2. MD5 hash that hopefully uniquely identifies participant.
# 3. Controller name.
# 4. Item number.
# 5. Element number.
# 6. Type.
# 7. Group.
# 8. Question (NULL if none).
# 9. Answer.
# 10. Whether or not answer was correct (NULL if N/A).
# 11. Time taken to answer.
1732401514,cf1a953dffd2eac7a8e2c5a7c5b51660,Question,6,0,practice,201,<p> Emotikon wyraża emocje: </p>,Nadawcy wiadomości.,NULL,1232
1732401514,cf1a953dffd2eac7a8e2c5a7c5b51660,Question,7,0,practice,202,<p> Czasownik wyraża emocje: </p>,Nadawcy wiadomości.,NULL,703
# Columns below this comment are as follows:
# 1. Time results were received.
# 2. MD5 hash that hopefully uniquely identifies participant.
# 3. Controller name.
# 4. Item number.
# 5. Element number.
# 6. Type.
# 7. Group.
# 8. PennElementType.
# 9. PennElementName.
# 10. Parameter.
# 11. Value.
# 12. EventTime.
# 13. Comments.
1732401514,cf1a953dffd2eac7a8e2c5a7c5b51660,PennController,0,0,TrainE,NULL,PennController,0,_Trial_,Start,1732401622494,NULL
1732401514,cf1a953dffd2eac7a8e2c5a7c5b51660,PennController,0,0,TrainE,NULL,PennController,0,_Trial_,End,1732401646377,NULL
# Columns below this comment are as follows:
# 1. Time results were received.
# 2. MD5 hash that hopefully uniquely identifies participant.
# 3. Controller name.
# 4. Item number.
# 5. Element number.
# 6. Type.
# 7. Group.
# 8. Question (NULL if none).
# 9. Answer.
# 10. Whether or not answer was correct (NULL if N/A).
# 11. Time taken to answer.
1732401514,cf1a953dffd2eac7a8e2c5a7c5b51660,Question,99,0,Filler,112,<div>%0A          <img src='https://osf.io/download/ju84a/' style='width:300px; height:auto;'><br>%0A          <p>Czasownik wyraża emocje:</p>%0A        </div>,Nadawcy wiadomości.,NULL,3443
1732401514,cf1a953dffd2eac7a8e2c5a7c5b51660,Question,26,0,Neg_Initial,5,<div>%0A          <img src='https://osf.io/download/zjwuq/' style='width:300px; height:auto;'><br>%0A          <p>Emotikon wyraża emocje:</p>%0A        </div>,Mai.,NULL,1854
1732401514,cf1a953dffd2eac7a8e2c5a7c5b51660,Question,106,0,Filler,119,<div>%0A          <img src='https://osf.io/download/7m98j/' style='width:300px; height:auto;'><br>%0A          <p>Czasownik wyraża emocje:</p>%0A        </div>,Jacka.,NULL,463
1732401514,cf1a953dffd2eac7a8e2c5a7c5b51660,Question,32,0,Pos_Initial,7,<div>%0A          <img src='https://osf.io/download/68z7b/' style='width:300px; height:auto;'><br>%0A          <p>Emotikon wyraża emocje:</p>%0A        </div>,Olka.,NULL,192
1732401514,cf1a953dffd2eac7a8e2c5a7c5b51660,Question,96,0,Filler,109,<div>%0A          <img src='https://osf.io/download/nrvxq/' style='width:300px; height:auto;'><br>%0A          <p>Czasownik wyraża emocje:</p>%0A        </div>,Igora.,NULL,166
1732401514,cf1a953dffd2eac7a8e2c5a7c5b51660,Question,15,0,Neg_Final,2,<div>%0A          <img src='https://osf.io/download/twfv2/' style='width:300px; height:auto;'><br>%0A          <p>Emotikon wyraża emocje:</p>%0A        </div>,Oliwii.,NULL,142
1732401514,cf1a953dffd2eac7a8e2c5a7c5b51660,Question,93,0,Filler,106,<div>%0A          <img src='https://osf.io/download/w94eu/' style='width:300px; height:auto;'><br>%0A          <p>Czasownik wyraża emocje:</p>%0A        </div>,Basi.,NULL,141
1732401514,cf1a953dffd2eac7a8e2c5a7c5b51660,Question,53,0,Pos_Final,12,<div>%0A          <img src='https://osf.io/download/wpx9e/' style='width:300px; height:auto;'><br>%0A          <p>Emotikon wyraża emocje:</p>%0A        </div>,Wiktora.,NULL,142
1732401514,cf1a953dffd2eac7a8e2c5a7c5b51660,Question,90,0,Filler,103,<div>%0A          <img src='https://osf.io/download/2jqgu/' style='width:300px; height:auto;'><br>%0A          <p>Czasownik wyraża emocje:</p>%0A        </div>,Emila.,NULL,254
1732401514,cf1a953dffd2eac7a8e2c5a7c5b51660,Question,58,0,Neg_Initial,13,<div>%0A          <img src='https://osf.io/download/knpem/' style='width:300px; height:auto;'><br>%0A          <p>Emotikon wyraża emocje:</p>%0A        </div>,Mateusza.,NULL,148
1732401514,cf1a953dffd2eac7a8e2c5a7c5b51660,Question,97,0,Filler,110,<div>%0A          <img src='https://osf.io/download/6ad9p/' style='width:300px; height:auto;'><br>%0A          <p>Czasownik wyraża emocje:</p>%0A        </div>,Oli.,NULL,128
1732401514,cf1a953dffd2eac7a8e2c5a7c5b51660,Question,80,0,Pos_Initial,19,<div>%0A          <img src='https://osf.io/download/r7keh/' style='width:300px; height:auto;'><br>%0A          <p>Emotikon wyraża emocje:</p>%0A        </div>,Emilii.,NULL,158
1732401514,cf1a953dffd2eac7a8e2c5a7c5b51660,Question,89,0,Filler,102,<div>%0A          <img src='https://osf.io/download/7a8b6/' style='width:300px; height:auto;'><br>%0A          <p>Czasownik wyraża emocje:</p>%0A        </div>,Marty.,NULL,141
1732401514,cf1a953dffd2eac7a8e2c5a7c5b51660,Question,47,0,Neg_Final,10,<div>%0A          <img src='https://osf.io/download/39m6k/' style='width:300px; height:auto;'><br>%0A          <p>Emotikon wyraża emocje:</p>%0A        </div>,Marka.,NULL,162
1732401514,cf1a953dffd2eac7a8e2c5a7c5b51660,Question,92,0,Filler,105,<div>%0A          <img src='https://osf.io/download/9vc6u/' style='width:300px; height:auto;'><br>%0A          <p>Czasownik wyraża emocje:</p>%0A        </div>,Maćka.,NULL,137
1732401514,cf1a953dffd2eac7a8e2c5a7c5b51660,Question,85,0,Pos_Final,20,<div>%0A          <img src='https://osf.io/download/awhqf/' style='width:300px; height:auto;'><br>%0A          <p>Emotikon wyraża emocje:</p>%0A        </div>,Moniki.,NULL,138
1732401514,cf1a953dffd2eac7a8e2c5a7c5b51660,Question,101,0,Filler,114,<div>%0A          <img src='https://osf.io/download/zmrg7/' style='width:300px; height:auto;'><br>%0A          <p>Czasownik wyraża emocje:</p>%0A        </div>,Amelki.,NULL,103
1732401514,cf1a953dffd2eac7a8e2c5a7c5b51660,Question,42,0,Neg_Initial,9,<div>%0A          <img src='https://osf.io/download/cnhpf/' style='width:300px; height:auto;'><br>%0A          <p>Emotikon wyraża emocje:</p>%0A        </div>,Tomka.,NULL,136
1732401514,cf1a953dffd2eac7a8e2c5a7c5b51660,Question,91,0,Filler,104,<div>%0A          <img src='https://osf.io/download/dz7nj/' style='width:300px; height:auto;'><br>%0A          <p>Czasownik wyraża emocje:</p>%0A        </div>,Anety.,NULL,141
1732401514,cf1a953dffd2eac7a8e2c5a7c5b51660,Question,16,0,Pos_Initial,3,<div>%0A          <img src='https://osf.io/download/tvzpc/' style='width:300px; height:auto;'><br>%0A          <p>Emotikon wyraża emocje:</p>%0A        </div>,Marii.,NULL,129
1732401514,cf1a953dffd2eac7a8e2c5a7c5b51660,Question,104,0,Filler,117,<div>%0A          <img src='https://osf.io/download/jt2zc/' style='width:300px; height:auto;'><br>%0A          <p>Czasownik wyraża emocje:</p>%0A        </div>,Leszka.,NULL,135
1732401514,cf1a953dffd2eac7a8e2c5a7c5b51660,Question,79,0,Neg_Final,18,<div>%0A          <img src='https://osf.io/download/qpt82/' style='width:300px; height:auto;'><br>%0A          <p>Emotikon wyraża emocje:</p>%0A        </div>,Wiktorii.,NULL,145
1732401514,cf1a953dffd2eac7a8e2c5a7c5b51660,Question,94,0,Filler,107,<div>%0A          <img src='https://osf.io/download/gj8ub/' style='width:300px; height:auto;'><br>%0A          <p>Czasownik wyraża emocje:</p>%0A        </div>,Bogdana.,NULL,149
1732401514,cf1a953dffd2eac7a8e2c5a7c5b51660,Question,21,0,Pos_Final,4,<div>%0A          <img src='https://osf.io/download/rj8hb/' style='width:300px; height:auto;'><br>%0A          <p>Emotikon wyraża emocje:</p>%0A        </div>,Ani.,NULL,138
1732401514,cf1a953dffd2eac7a8e2c5a7c5b51660,Question,105,0,Filler,118,<div>%0A          <img src='https://osf.io/download/zh4vq/' style='width:300px; height:auto;'><br>%0A          <p>Czasownik wyraża emocje:</p>%0A        </div>,Klaudii.,NULL,155
1732401514,cf1a953dffd2eac7a8e2c5a7c5b51660,Question,74,0,Neg_Initial,17,<div>%0A          <img src='https://osf.io/download/8f7dz/' style='width:300px; height:auto;'><br>%0A          <p>Emotikon wyraża emocje:</p>%0A        </div>,Pauliny.,NULL,122
1732401514,cf1a953dffd2eac7a8e2c5a7c5b51660,Question,102,0,Filler,115,<div>%0A          <img src='https://osf.io/download/mp3xt/' style='width:300px; height:auto;'><br>%0A          <p>Czasownik wyraża emocje:</p>%0A        </div>,Konrada.,NULL,146
1732401514,cf1a953dffd2eac7a8e2c5a7c5b51660,Question,48,0,Pos_Initial,11,<div>%0A          <img src='https://osf.io/download/syhq2/' style='width:300px; height:auto;'><br>%0A          <p>Emotikon wyraża emocje:</p>%0A        </div>,Jana.,NULL,170
1732401514,cf1a953dffd2eac7a8e2c5a7c5b51660,Question,88,0,Filler,101,<div>%0A        <img src='https://osf.io/download/ydgqk/' style='width:300px; height:auto;'>%0A          <p>Czasownik wyraża emocje:</p>%0A        </div>,Ludwika.,NULL,133
1732401514,cf1a953dffd2eac7a8e2c5a7c5b51660,Question,63,0,Neg_Final,14,<div>%0A          <img src='https://osf.io/download/ne94q/' style='width:300px; height:auto;'><br>%0A          <p>Emotikon wyraża emocje:</p>%0A        </div>,Krzysia.,NULL,158
1732401514,cf1a953dffd2eac7a8e2c5a7c5b51660,Question,100,0,Filler,113,<div>%0A          <img src='https://osf.io/download/kpx29/' style='width:300px; height:auto;'><br>%0A          <p>Czasownik wyraża emocje:</p>%0A        </div>,Adriana.,NULL,142
1732401514,cf1a953dffd2eac7a8e2c5a7c5b51660,Question,37,0,Pos_Final,8,<div>%0A          <img src='https://osf.io/download/s2vq7/' style='width:300px; height:auto;'><br>%0A          <p>Emotikon wyraża emocje:</p>%0A        </div>,Roberta.,NULL,151
1732401514,cf1a953dffd2eac7a8e2c5a7c5b51660,Question,103,0,Filler,116,<div>%0A          <img src='https://osf.io/download/m9fhk/' style='width:300px; height:auto;'><br>%0A          <p>Czasownik wyraża emocje:</p>%0A        </div>,Uli.,NULL,288
1732401514,cf1a953dffd2eac7a8e2c5a7c5b51660,Question,10,0,Neg_Initial,1,<div>%0A          <img src='https://osf.io/download/wr5m9/' style='width:300px; height:auto;'><br>%0A          <p>Emotikon wyraża emocje:</p>%0A        </div>,Zosi.,NULL,150
1732401514,cf1a953dffd2eac7a8e2c5a7c5b51660,Question,95,0,Filler,108,<div>%0A          <img src='https://osf.io/download/hg5bj/' style='width:300px; height:auto;'><br>%0A          <p>Czasownik wyraża emocje:</p>%0A        </div>,Soni.,NULL,154
1732401514,cf1a953dffd2eac7a8e2c5a7c5b51660,Question,64,0,Pos_Initial,15,<div>%0A          <img src='https://osf.io/download/6zy52/' style='width:300px; height:auto;'><br>%0A          <p>Emotikon wyraża emocje:</p>%0A        </div>,Grzesia.,NULL,167
1732401514,cf1a953dffd2eac7a8e2c5a7c5b51660,Question,98,0,Filler,111,<div>%0A          <img src='https://osf.io/download/pw7z2/' style='width:300px; height:auto;'><br>%0A          <p>Czasownik wyraża emocje:</p>%0A        </div>,Krystiana.,NULL,203
1732401514,cf1a953dffd2eac7a8e2c5a7c5b51660,Question,31,0,Neg_Final,6,<div>%0A          <img src='https://osf.io/download/k8nje/' style='width:300px; height:auto;'><br>%0A          <p>Emotikon wyraża emocje:</p>%0A        </div>,Kacpra.,NULL,272
1732401514,cf1a953dffd2eac7a8e2c5a7c5b51660,Question,107,0,Filler,120,<div>%0A          <img src='https://osf.io/download/ec6qy/' style='width:300px; height:auto;'><br>%0A          <p>Czasownik wyraża emocje:</p>%0A        </div>,Izy.,NULL,267
1732401514,cf1a953dffd2eac7a8e2c5a7c5b51660,Question,69,0,Pos_Final,16,<div>%0A          <img src='https://osf.io/download/t4735/' style='width:300px; height:auto;'><br>%0A          <p>Emotikon wyraża emocje:</p>%0A        </div>,Weroniki.,NULL,358
# Columns below this comment are as follows:
# 1. Time results were received.
# 2. MD5 hash that hopefully uniquely identifies participant.
# 3. Controller name.
# 4. Item number.
# 5. Element number.
# 6. Type.
# 7. Group.
# 8. PennElementType.
# 9. PennElementName.
# 10. Parameter.
# 11. Value.
# 12. EventTime.
# 13. Comments.
1732401514,cf1a953dffd2eac7a8e2c5a7c5b51660,PennController,1,0,Outro,NULL,PennController,1,_Trial_,Start,1732401658505,NULL
1732401514,cf1a953dffd2eac7a8e2c5a7c5b51660,PennController,1,0,Outro,NULL,DropDown,gender,Selected,Kobieta,1732401661461,0
1732401514,cf1a953dffd2eac7a8e2c5a7c5b51660,PennController,1,0,Outro,NULL,DropDown,age,Selected,18-29,1732401662308,0
1732401514,cf1a953dffd2eac7a8e2c5a7c5b51660,PennController,1,0,Outro,NULL,DropDown,emoji-use,Selected,Codziennie,1732401663249,0
1732401514,cf1a953dffd2eac7a8e2c5a7c5b51660,PennController,1,0,Outro,NULL,DropDown,emoji-rec,Selected,Codziennie,1732401664409,0
1732401514,cf1a953dffd2eac7a8e2c5a7c5b51660,PennController,1,0,Outro,NULL,PennController,1,_Trial_,End,1732401693840,NULL
#
# Results on Saturday November 23 2024 22:39:49 UTC.
# USER AGENT: Mozilla/5.0 (Windows NT 10.0; Win64; x64; rv:132.0) Gecko/20100101 Firefox/132.0
# Design number was non-random = 8
#
# Columns below this comment are as follows:
# 1. Time results were received.
# 2. MD5 hash that hopefully uniquely identifies participant.
# 3. Controller name.
# 4. Item number.
# 5. Element number.
# 6. Type.
# 7. Group.
# 8. Field name.
# 9. Field value.
1732401590,cf1a953dffd2eac7a8e2c5a7c5b51660,Form,5,0,intro,NULL,consent,yes
1732401590,cf1a953dffd2eac7a8e2c5a7c5b51660,Form,5,0,intro,NULL,_REACTION_TIME_,2467
# Columns below this comment are as follows:
# 1. Time results were received.
# 2. MD5 hash that hopefully uniquely identifies participant.
# 3. Controller name.
# 4. Item number.
# 5. Element number.
# 6. Type.
# 7. Group.
# 8. PennElementType.
# 9. PennElementName.
# 10. Parameter.
# 11. Value.
# 12. EventTime.
# 13. Comments.
1732401590,cf1a953dffd2eac7a8e2c5a7c5b51660,PennController,2,0,Intro1,NULL,PennController,2,_Trial_,Start,1732401758793,NULL
1732401590,cf1a953dffd2eac7a8e2c5a7c5b51660,PennController,2,0,Intro1,NULL,PennController,2,_Trial_,End,1732401760518,NULL
# Columns below this comment are as follows:
# 1. Time results were received.
# 2. MD5 hash that hopefully uniquely identifies participant.
# 3. Controller name.
# 4. Item number.
# 5. Element number.
# 6. Type.
# 7. Group.
# 8. Question (NULL if none).
# 9. Answer.
# 10. Whether or not answer was correct (NULL if N/A).
# 11. Time taken to answer.
1732401590,cf1a953dffd2eac7a8e2c5a7c5b51660,Question,6,0,practice,201,<p> Emotikon wyraża emocje: </p>,Nadawcy wiadomości.,NULL,686
1732401590,cf1a953dffd2eac7a8e2c5a7c5b51660,Question,7,0,practice,202,<p> Czasownik wyraża emocje: </p>,Nadawcy wiadomości.,NULL,387
# Columns below this comment are as follows:
# 1. Time results were received.
# 2. MD5 hash that hopefully uniquely identifies participant.
# 3. Controller name.
# 4. Item number.
# 5. Element number.
# 6. Type.
# 7. Group.
# 8. PennElementType.
# 9. PennElementName.
# 10. Parameter.
# 11. Value.
# 12. EventTime.
# 13. Comments.
1732401590,cf1a953dffd2eac7a8e2c5a7c5b51660,PennController,0,0,TrainE,NULL,PennController,0,_Trial_,Start,1732401761605,NULL
1732401590,cf1a953dffd2eac7a8e2c5a7c5b51660,PennController,0,0,TrainE,NULL,PennController,0,_Trial_,End,1732401762502,NULL
# Columns below this comment are as follows:
# 1. Time results were received.
# 2. MD5 hash that hopefully uniquely identifies participant.
# 3. Controller name.
# 4. Item number.
# 5. Element number.
# 6. Type.
# 7. Group.
# 8. Question (NULL if none).
# 9. Answer.
# 10. Whether or not answer was correct (NULL if N/A).
# 11. Time taken to answer.
1732401590,cf1a953dffd2eac7a8e2c5a7c5b51660,Question,89,0,Filler,102,<div>%0A          <img src='https://osf.io/download/7a8b6/' style='width:300px; height:auto;'><br>%0A          <p>Czasownik wyraża emocje:</p>%0A        </div>,Nadawcy wiadomości.,NULL,492
1732401590,cf1a953dffd2eac7a8e2c5a7c5b51660,Question,61,0,Pos_Final,14,<div>%0A          <img src='https://osf.io/download/9wgu6/' style='width:300px; height:auto;'><br>%0A          <p>Emotikon wyraża emocje:</p>%0A        </div>,Nadawcy wiadomości.,NULL,345
1732401590,cf1a953dffd2eac7a8e2c5a7c5b51660,Question,93,0,Filler,106,<div>%0A          <img src='https://osf.io/download/w94eu/' style='width:300px; height:auto;'><br>%0A          <p>Czasownik wyraża emocje:</p>%0A        </div>,Nadawcy wiadomości.,NULL,131
1732401590,cf1a953dffd2eac7a8e2c5a7c5b51660,Question,40,0,Pos_Initial,9,<div>%0A          <img src='https://osf.io/download/egct3/' style='width:300px; height:auto;'><br>%0A          <p>Emotikon wyraża emocje:</p>%0A        </div>,Nadawcy wiadomości.,NULL,133
1732401590,cf1a953dffd2eac7a8e2c5a7c5b51660,Question,92,0,Filler,105,<div>%0A          <img src='https://osf.io/download/9vc6u/' style='width:300px; height:auto;'><br>%0A          <p>Czasownik wyraża emocje:</p>%0A        </div>,Nadawcy wiadomości.,NULL,125
1732401590,cf1a953dffd2eac7a8e2c5a7c5b51660,Question,34,0,Neg_Initial,7,<div>%0A          <img src='https://osf.io/download/rt8ez/' style='width:300px; height:auto;'><br>%0A          <p>Emotikon wyraża emocje:</p>%0A        </div>,Nadawcy wiadomości.,NULL,120
1732401590,cf1a953dffd2eac7a8e2c5a7c5b51660,Question,103,0,Filler,116,<div>%0A          <img src='https://osf.io/download/m9fhk/' style='width:300px; height:auto;'><br>%0A          <p>Czasownik wyraża emocje:</p>%0A        </div>,Nadawcy wiadomości.,NULL,119
1732401590,cf1a953dffd2eac7a8e2c5a7c5b51660,Question,39,0,Neg_Final,8,<div>%0A          <img src='https://osf.io/download/f8vqp/' style='width:300px; height:auto;'><br>%0A          <p>Emotikon wyraża emocje:</p>%0A        </div>,Nadawcy wiadomości.,NULL,125
1732401590,cf1a953dffd2eac7a8e2c5a7c5b51660,Question,105,0,Filler,118,<div>%0A          <img src='https://osf.io/download/zh4vq/' style='width:300px; height:auto;'><br>%0A          <p>Czasownik wyraża emocje:</p>%0A        </div>,Nadawcy wiadomości.,NULL,124
1732401590,cf1a953dffd2eac7a8e2c5a7c5b51660,Question,13,0,Pos_Final,2,<div>%0A          <img src='https://osf.io/download/58jr3/' style='width:300px; height:auto;'><br>%0A          <p>Emotikon wyraża emocje:</p>%0A        </div>,Nadawcy wiadomości.,NULL,131
1732401590,cf1a953dffd2eac7a8e2c5a7c5b51660,Question,96,0,Filler,109,<div>%0A          <img src='https://osf.io/download/nrvxq/' style='width:300px; height:auto;'><br>%0A          <p>Czasownik wyraża emocje:</p>%0A        </div>,Nadawcy wiadomości.,NULL,126
1732401590,cf1a953dffd2eac7a8e2c5a7c5b51660,Question,56,0,Pos_Initial,13,<div>%0A          <img src='https://osf.io/download/ec2w8/' style='width:300px; height:auto;'><br>%0A          <p>Emotikon wyraża emocje:</p>%0A        </div>,Nadawcy wiadomości.,NULL,137
1732401590,cf1a953dffd2eac7a8e2c5a7c5b51660,Question,91,0,Filler,104,<div>%0A          <img src='https://osf.io/download/dz7nj/' style='width:300px; height:auto;'><br>%0A          <p>Czasownik wyraża emocje:</p>%0A        </div>,Nadawcy wiadomości.,NULL,132
1732401590,cf1a953dffd2eac7a8e2c5a7c5b51660,Question,82,0,Neg_Initial,19,<div>%0A          <img src='https://osf.io/download/57b9a/' style='width:300px; height:auto;'><br>%0A          <p>Emotikon wyraża emocje:</p>%0A        </div>,Nadawcy wiadomości.,NULL,146
1732401590,cf1a953dffd2eac7a8e2c5a7c5b51660,Question,99,0,Filler,112,<div>%0A          <img src='https://osf.io/download/ju84a/' style='width:300px; height:auto;'><br>%0A          <p>Czasownik wyraża emocje:</p>%0A        </div>,Nadawcy wiadomości.,NULL,131
1732401590,cf1a953dffd2eac7a8e2c5a7c5b51660,Question,87,0,Neg_Final,20,<div>%0A          <img src='https://osf.io/download/23n67/' style='width:300px; height:auto;'><br>%0A          <p>Emotikon wyraża emocje:</p>%0A        </div>,Nadawcy wiadomości.,NULL,143
1732401590,cf1a953dffd2eac7a8e2c5a7c5b51660,Question,101,0,Filler,114,<div>%0A          <img src='https://osf.io/download/zmrg7/' style='width:300px; height:auto;'><br>%0A          <p>Czasownik wyraża emocje:</p>%0A        </div>,Nadawcy wiadomości.,NULL,150
1732401590,cf1a953dffd2eac7a8e2c5a7c5b51660,Question,45,0,Pos_Final,10,<div>%0A          <img src='https://osf.io/download/kw4re/' style='width:300px; height:auto;'><br>%0A          <p>Emotikon wyraża emocje:</p>%0A        </div>,Nadawcy wiadomości.,NULL,161
